#Total-Energy(MeV)  Deposited-Energy(MeV)  Light-Output(Gamma-MeV)  Ratio  Nf(Gamma-Mev)  Ns(Gamma-MeV)  Ratio(delta electrons)
1	1	1.3517	1.3517	1.04821	0.303489	0
2	2	2.81605	1.40803	2.08225	0.733801	0
3	3	4.29552	1.43184	3.06086	1.23466	0
4	4	5.7673	1.44182	4.00476	1.76254	0
5	5	7.24645	1.44929	4.91853	2.32792	0
6	6	8.66162	1.4436	5.77371	2.88791	0.00149734
7	7	10.0776	1.43965	6.60715	3.47043	0.00622778
8	8	11.4933	1.43666	7.4214	4.07189	0.012329
9	9	12.8339	1.42599	8.18503	4.64889	0.0188986
10	10	14.2002	1.42002	8.94728	5.25287	0.0255008
11	11	15.5292	1.41174	9.68179	5.84737	0.0319003
12	12	16.8343	1.40286	10.3932	6.44112	0.0380231
13	13	18.1466	1.39589	11.106	7.04061	0.0438942
14	14	19.4353	1.38824	11.7984	7.63696	0.0494351
15	15	20.7023	1.38016	12.4716	8.23071	0.0546897
16	16	21.9775	1.3736	13.1497	8.82787	0.0596679
17	17	23.2298	1.36646	13.8095	9.42039	0.0643675
18	18	24.468	1.35934	14.4555	10.0126	0.0688311
19	19	25.7016	1.35272	15.1011	10.6005	0.0730551
20	20	26.9225	1.34613	15.7337	11.1888	0.0770669
21	21	28.1675	1.34131	16.377	11.7905	0.0808686
22	22	29.3792	1.33542	17.001	12.3782	0.0844591
23	23	30.5576	1.32859	17.6079	12.9497	0.0878729
24	24	31.7671	1.32363	18.2266	13.5405	0.0911368
25	25	32.9474	1.3179	18.8288	14.1186	0.0942791
26	26	34.1313	1.31274	19.4259	14.7054	0.0972906
27	27	35.3086	1.30772	20.0255	15.2831	0.100174
28	28	36.4862	1.30308	20.6218	15.8644	0.102944
29	29	37.6547	1.29844	21.2091	16.4456	0.105596
30	30	38.8085	1.29362	21.7917	17.0169	0.108151
31	31	39.9542	1.28884	22.3661	17.5881	0.110601
32	32	41.1185	1.28495	22.9485	18.17	0.112952
33	33	42.2306	1.27971	23.506	18.7245	0.115215
34	34	43.3694	1.27557	24.0738	19.2956	0.1174
35	35	44.5336	1.27239	24.654	19.8796	0.119519
36	36	45.6687	1.26857	25.2176	20.4511	0.121567
37	37	46.7699	1.26405	25.7666	21.0033	0.123543
38	38	47.8996	1.26052	26.3266	21.5731	0.125451
39	39	49.0053	1.25655	26.8711	22.1342	0.1273
40	40	50.1247	1.25312	27.4264	22.6983	0.1291
41	41	51.2379	1.24971	27.9732	23.2648	0.130845
42	42	52.3422	1.24624	28.5191	23.8232	0.132535
43	43	53.4627	1.24332	29.0696	24.3932	0.134172
44	44	54.5483	1.23973	29.6033	24.9451	0.135768
45	45	55.66	1.23689	30.1481	25.512	0.137321
46	46	56.7455	1.2336	30.6815	26.0639	0.138834
47	47	57.8418	1.23068	31.2162	26.6256	0.140301
48	48	58.9294	1.2277	31.7502	27.1792	0.14173
49	49	60.0191	1.22488	32.2803	27.7388	0.143121
50	50	61.1029	1.22206	32.8115	28.2914	0.144483
51	51	62.1821	1.21926	33.335	28.8471	0.145809
52	52	63.2641	1.21662	33.8643	29.3998	0.147102
53	53	64.3464	1.21408	34.3887	29.9577	0.14836
54	54	65.4117	1.21133	34.9074	30.5043	0.149592
55	55	66.4997	1.20909	35.4329	31.0669	0.150796
56	56	67.556	1.20636	35.9467	31.6093	0.151975
57	57	68.6504	1.20439	36.4786	32.1718	0.153124
58	58	69.7209	1.20209	36.996	32.725	0.154246
59	59	70.7575	1.19928	37.4999	33.2577	0.155347
60	60	71.8222	1.19704	38.0147	33.8074	0.156424
61	61	72.8836	1.19481	38.5226	34.361	0.157478
62	62	73.9497	1.19274	39.0384	34.9113	0.15851
63	63	74.9872	1.19027	39.5418	35.4454	0.159521
64	64	76.037	1.18808	40.0462	35.9908	0.16051
65	65	77.1055	1.18624	40.563	36.5425	0.161483
66	66	78.1425	1.18398	41.0616	37.0809	0.162435
67	67	79.2047	1.18216	41.5729	37.6318	0.163369
68	68	80.2329	1.1799	42.0653	38.1675	0.164283
69	69	81.2819	1.178	42.5706	38.7113	0.165181
70	70	82.3419	1.17631	43.0763	39.2656	0.166063
71	71	83.3796	1.17436	43.5736	39.806	0.16693
72	72	84.4074	1.17233	44.0702	40.3372	0.167781
73	73	85.4397	1.17041	44.5634	40.8763	0.168615
74	74	86.4936	1.16883	45.0696	41.424	0.169435
75	75	87.5137	1.16685	45.5571	41.9566	0.170243
76	76	88.5586	1.16524	46.0577	42.5009	0.171036
77	77	89.5795	1.16337	46.5427	43.0368	0.171815
78	78	90.6084	1.16165	47.0343	43.5741	0.17258
79	79	91.6556	1.1602	47.5371	44.1185	0.173334
80	80	92.6762	1.15845	48.0244	44.6518	0.174076
81	81	93.7214	1.15705	48.5214	45.2001	0.174806
82	82	94.7288	1.15523	49.0033	45.7256	0.175524
83	83	95.7604	1.15374	49.4945	46.2659	0.17623
84	84	96.7623	1.15193	49.9692	46.7931	0.176924
85	85	97.7857	1.15042	50.4563	47.3294	0.177609
86	86	98.8159	1.14902	50.9495	47.8664	0.178285
87	87	99.8221	1.14738	51.4264	48.3957	0.178948
88	88	100.848	1.146	51.9156	48.9322	0.179602
89	89	101.876	1.14468	52.4034	49.473	0.180245
90	90	102.894	1.14327	52.8871	50.0069	0.18088
91	91	103.891	1.14166	53.3608	50.5301	0.181508
92	92	104.898	1.1402	53.8364	51.0618	0.182124
93	93	105.913	1.13885	54.3199	51.5931	0.182732
94	94	106.945	1.13772	54.8071	52.1382	0.183331
95	95	107.959	1.13641	55.2881	52.6708	0.183923
96	96	108.939	1.13478	55.7534	53.1856	0.184508
97	97	109.962	1.13363	56.2379	53.7244	0.185083
98	98	110.953	1.13217	56.7058	54.247	0.185651
99	99	111.984	1.13115	57.1957	54.788	0.186211
100	100	112.984	1.12984	57.6694	55.3146	0.186765
101	101	113.989	1.12861	58.1419	55.8474	0.18731
102	102	114.983	1.12729	58.615	56.3681	0.187845
103	103	115.98	1.12602	59.0861	56.8939	0.188371
104	104	116.997	1.12497	59.5658	57.4309	0.188888
105	105	117.972	1.12354	60.0255	57.9465	0.189397
106	106	118.971	1.12237	60.4961	58.475	0.189897
107	107	119.977	1.12128	60.9735	59.0034	0.190391
108	108	120.991	1.12029	61.4518	59.5394	0.190876
109	109	121.989	1.11917	61.9201	60.0691	0.191355
110	110	122.96	1.11782	62.3782	60.5818	0.191828
111	111	123.987	1.117	62.8634	61.1234	0.192294
112	112	124.98	1.11589	63.3317	61.6482	0.192755
113	113	125.947	1.11458	63.7857	62.1613	0.19321
114	114	126.968	1.11375	64.2679	62.7	0.19366
115	115	127.959	1.11269	64.7343	63.2252	0.194106
116	116	128.921	1.11139	65.1882	63.7331	0.194547
117	117	129.91	1.11035	65.6516	64.2589	0.194984
118	118	130.902	1.10934	66.1203	64.7816	0.195417
119	119	131.907	1.10846	66.5901	65.3171	0.195846
120	120	132.899	1.10749	67.0569	65.8419	0.196272
121	121	133.863	1.1063	67.5117	66.3509	0.196695
122	122	134.855	1.10537	67.9765	66.8784	0.197115
123	123	135.833	1.10433	68.4369	67.3959	0.197532
124	124	136.849	1.10362	68.9138	67.9356	0.197947
125	125	137.829	1.10263	69.3732	68.4556	0.19836
126	126	138.783	1.10146	69.8221	68.9613	0.198769
127	127	139.781	1.10064	70.2877	69.4938	0.199171
128	128	140.769	1.09976	70.7517	70.017	0.199569
129	129	141.727	1.09866	71.2018	70.5249	0.199962
130	130	142.737	1.09798	71.6769	71.0605	0.200349
131	131	143.71	1.09703	72.1339	71.5765	0.200731
132	132	144.701	1.09622	72.5962	72.1044	0.201108
133	133	145.649	1.0951	73.0419	72.6067	0.201482
134	134	146.622	1.09419	73.4957	73.1263	0.201851
135	135	147.601	1.09334	73.9561	73.6452	0.202216
136	136	148.606	1.09269	74.4262	74.1796	0.202577
137	137	149.569	1.09174	74.8781	74.6904	0.202935
138	138	150.551	1.09095	75.3373	75.2133	0.203289
139	139	151.506	1.08997	75.7816	75.7241	0.20364
140	140	152.507	1.08933	76.2508	76.256	0.203987
141	141	153.472	1.08845	76.7038	76.7683	0.204332
142	142	154.431	1.08754	77.1529	77.2784	0.204675
143	143	155.394	1.08667	77.6008	77.7929	0.205014
144	144	156.371	1.08591	78.0594	78.312	0.205351
145	145	157.368	1.0853	78.5236	78.8448	0.205685
146	146	158.334	1.08448	78.9759	79.3581	0.206018
147	147	159.297	1.08366	79.4232	79.8742	0.206348
148	148	160.258	1.08283	79.8755	80.3828	0.206677
149	149	161.222	1.08203	80.3254	80.8969	0.207004
150	150	162.209	1.0814	80.7853	81.424	0.207328
151	151	163.153	1.08048	81.226	81.9271	0.207651
152	152	164.116	1.07971	81.674	82.4419	0.20797
153	153	165.09	1.07902	82.1303	82.9599	0.208285
154	154	166.081	1.07845	82.5904	83.4903	0.208596
155	155	167.034	1.07764	83.0367	83.997	0.208905
156	156	168	1.07692	83.487	84.5127	0.20921
157	157	168.963	1.0762	83.9329	85.0305	0.209512
158	158	169.921	1.07545	84.383	85.5383	0.209812
159	159	170.877	1.0747	84.8282	86.049	0.210108
160	160	171.852	1.07407	85.2823	86.5692	0.210402
161	161	172.807	1.07334	85.7252	87.082	0.210693
162	162	173.79	1.07278	86.1837	87.6062	0.210981
163	163	174.75	1.07209	86.6303	88.1198	0.211268
164	164	175.68	1.07122	87.0636	88.6166	0.211552
165	165	176.663	1.07069	87.5198	89.1434	0.211834
166	166	177.628	1.07005	87.9696	89.6584	0.212114
167	167	178.56	1.06922	88.4032	90.1568	0.212392
168	168	179.55	1.06875	88.8653	90.6849	0.212668
169	169	180.504	1.06807	89.3097	91.1943	0.212943
170	170	181.457	1.06739	89.7498	91.7068	0.213215
171	171	182.406	1.0667	90.1949	92.211	0.213487
172	172	183.355	1.06602	90.6357	92.7196	0.213756
173	173	184.324	1.06546	91.0869	93.2375	0.214024
174	174	185.273	1.06478	91.5249	93.7477	0.214291
175	175	186.242	1.06424	91.9747	94.2672	0.214556
176	176	187.184	1.06354	92.4131	94.7707	0.21482
177	177	188.142	1.06295	92.8609	95.2809	0.215082
178	178	189.087	1.06229	93.2968	95.7901	0.21534
179	179	190.051	1.06174	93.7452	96.3055	0.215597
180	180	190.992	1.06107	94.1827	96.8097	0.215851
181	181	191.97	1.06061	94.6385	97.3317	0.216103
182	182	192.905	1.05992	95.0724	97.8324	0.216353
183	183	193.856	1.05932	95.5136	98.3422	0.2166
184	184	194.823	1.05882	95.9631	98.8598	0.216846
185	185	195.762	1.05817	96.3959	99.3658	0.21709
186	186	196.74	1.05774	96.8511	99.8893	0.217331
187	187	197.681	1.05712	97.2861	100.395	0.217572
188	188	198.609	1.05643	97.7182	100.891	0.21781
189	189	199.594	1.05605	98.1749	101.419	0.218047
190	190	200.538	1.05546	98.6134	101.924	0.218283
191	191	201.488	1.05491	99.0525	102.435	0.218516
192	192	202.412	1.05423	99.4826	102.929	0.218749
193	193	203.366	1.05371	99.9233	103.443	0.21898
194	194	204.313	1.05316	100.362	103.951	0.21921
195	195	205.26	1.05261	100.803	104.457	0.219438
196	196	206.214	1.05211	101.241	104.973	0.219665
197	197	207.183	1.05169	101.693	105.491	0.219891
198	198	208.111	1.05106	102.123	105.988	0.220116
199	199	209.055	1.05053	102.562	106.493	0.220341
200	200	209.989	1.04994	102.993	106.996	0.220564
201	201	210.936	1.04943	103.432	107.504	0.220785
202	202	211.898	1.049	103.878	108.02	0.221005
203	203	212.83	1.04842	104.307	108.523	0.221223
204	204	213.804	1.04806	104.759	109.045	0.221439
205	205	214.749	1.04755	105.196	109.553	0.221654
206	206	215.666	1.04692	105.62	110.046	0.221867
207	207	216.62	1.04647	106.064	110.556	0.222079
208	208	217.547	1.0459	106.492	111.055	0.222289
209	209	218.489	1.0454	106.927	111.562	0.222497
210	210	219.444	1.04497	107.371	112.073	0.222704
211	211	220.394	1.04452	107.806	112.588	0.222909
212	212	221.341	1.04406	108.248	113.093	0.223114
213	213	222.281	1.04357	108.682	113.598	0.223317
214	214	223.236	1.04316	109.122	114.113	0.223519
215	215	224.145	1.04254	109.544	114.601	0.22372
216	216	225.093	1.0421	109.98	115.113	0.223919
217	217	226.035	1.04164	110.416	115.619	0.224118
218	218	226.967	1.04113	110.848	116.119	0.224315
219	219	227.937	1.04081	111.296	116.641	0.224511
220	220	228.864	1.04029	111.726	117.138	0.224707
221	221	229.806	1.03985	112.161	117.645	0.224901
222	222	230.744	1.03939	112.591	118.153	0.225095
223	223	231.676	1.0389	113.025	118.651	0.225288
224	224	232.605	1.03841	113.453	119.151	0.225479
225	225	233.549	1.038	113.89	119.659	0.225671
226	226	234.509	1.03765	114.332	120.177	0.22586
227	227	235.42	1.03709	114.754	120.666	0.226049
228	228	236.353	1.03664	115.182	121.171	0.226236
229	229	237.29	1.0362	115.615	121.675	0.226422
230	230	238.234	1.0358	116.053	122.181	0.226607
231	231	239.197	1.03549	116.496	122.701	0.22679
232	232	240.116	1.03498	116.922	123.194	0.226973
233	233	241.046	1.03453	117.351	123.695	0.227154
234	234	241.991	1.03415	117.787	124.204	0.227334
235	235	242.925	1.03372	118.214	124.711	0.227512
236	236	243.859	1.0333	118.649	125.209	0.22769
237	237	244.783	1.03284	119.075	125.708	0.227867
238	238	245.72	1.03244	119.508	126.212	0.228043
239	239	246.673	1.0321	119.947	126.726	0.228218
240	240	247.582	1.03159	120.364	127.218	0.228391
241	241	248.533	1.03126	120.801	127.732	0.228564
242	242	249.47	1.03087	121.234	128.236	0.228736
243	243	250.384	1.03039	121.656	128.728	0.228908
244	244	251.337	1.03007	122.098	129.239	0.229078
245	245	252.252	1.0296	122.519	129.733	0.229248
246	246	253.183	1.0292	122.947	130.236	0.229417
247	247	254.124	1.02884	123.383	130.741	0.229585
248	248	255.082	1.02856	123.822	131.26	0.229752
249	249	255.993	1.02809	124.245	131.749	0.229919
250	250	256.919	1.02768	124.671	132.248	0.230085
251	251	257.86	1.02733	125.104	132.755	0.230251
252	252	258.805	1.027	125.538	133.267	0.230415
253	253	259.714	1.02654	125.959	133.755	0.230578
254	254	260.636	1.02613	126.381	134.256	0.23074
255	255	261.569	1.02576	126.81	134.759	0.230901
256	256	262.499	1.02539	127.24	135.259	0.231062
257	257	263.452	1.0251	127.68	135.772	0.231221
258	258	264.358	1.02464	128.096	136.262	0.231379
259	259	265.301	1.02433	128.53	136.771	0.231537
260	260	266.23	1.02396	128.958	137.273	0.231693
261	261	267.147	1.02355	129.38	137.767	0.231849
262	262	268.1	1.02328	129.82	138.28	0.232005
263	263	269.007	1.02284	130.237	138.77	0.232159
264	264	269.933	1.02247	130.662	139.271	0.232312
265	265	270.862	1.02212	131.09	139.772	0.232465
266	266	271.806	1.02183	131.526	140.279	0.232617
267	267	272.73	1.02146	131.949	140.781	0.232769
267.1	267.1	272.813	1.02139	131.989	140.824	0.232784
267.2	267.2	272.921	1.02141	132.04	140.882	0.232799
267.3	267.3	273.03	1.02144	132.088	140.942	0.232814
267.4	267.4	273.093	1.02129	132.116	140.977	0.232829
267.5	267.5	273.188	1.02126	132.162	141.026	0.232844
267.6	267.6	273.298	1.02129	132.213	141.085	0.232859
267.7	267.7	273.388	1.02125	132.251	141.137	0.232874
267.8	267.8	273.46	1.02113	132.285	141.175	0.232889
267.9	267.9	273.565	1.02115	132.336	141.229	0.232904
268	268	273.676	1.02118	132.386	141.29	0.232919
268.1	268.1	273.749	1.02107	132.418	141.331	0.232934
268.2	268.2	273.835	1.02101	132.459	141.375	0.23295
268.3	268.3	273.946	1.02104	132.511	141.435	0.232965
268.4	268.4	274.039	1.02101	132.551	141.488	0.232979
268.5	268.5	274.109	1.02089	132.584	141.525	0.232995
269	269	274.6	1.02082	132.811	141.788	0.23307
270	270	275.532	1.02049	133.239	142.293	0.233219
271	271	276.428	1.02003	133.651	142.777	0.233368
272	272	277.387	1.01981	134.093	143.295	0.233516
273	273	278.307	1.01944	134.517	143.79	0.233664
274	274	279.237	1.01911	134.944	144.293	0.233811
275	275	280.148	1.01872	135.362	144.786	0.233958
276	276	281.075	1.01839	135.791	145.284	0.234104
277	277	281.986	1.018	136.207	145.779	0.234249
278	278	282.919	1.0177	136.636	146.283	0.234393
279	279	283.839	1.01734	137.058	146.78	0.234537
280	280	284.769	1.01703	137.489	147.28	0.23468
281	281	285.722	1.01681	137.926	147.797	0.234822
282	282	286.626	1.0164	138.343	148.283	0.234963
283	283	287.541	1.01605	138.763	148.778	0.235104
284	284	288.468	1.01573	139.189	149.279	0.235244
285	285	289.407	1.01546	139.621	149.786	0.235383
286	286	290.322	1.01511	140.039	150.282	0.235522
287	287	291.259	1.01484	140.472	150.787	0.23566
288	288	292.173	1.01449	140.892	151.28	0.235797
289	289	293.098	1.01418	141.318	151.781	0.235934
290	290	294.036	1.01392	141.747	152.289	0.23607
291	291	294.928	1.0135	142.156	152.772	0.236206
292	292	295.886	1.01331	142.597	153.289	0.236341
293	293	296.8	1.01297	143.018	153.782	0.236476
294	294	297.725	1.01267	143.442	154.283	0.23661
295	295	298.644	1.01235	143.865	154.779	0.236743
296	296	299.551	1.012	144.282	155.269	0.236876
297	297	300.468	1.01168	144.7	155.768	0.237009
298	298	301.398	1.0114	145.125	156.273	0.237141
299	299	302.32	1.0111	145.551	156.769	0.237273
300	300	303.232	1.01077	145.972	157.261	0.237404
301	301	304.182	1.01057	146.407	157.775	0.237535
302	302	305.081	1.0102	146.821	158.26	0.237665
303	303	305.993	1.00988	147.238	158.755	0.237794
304	304	306.913	1.00958	147.66	159.254	0.237922
305	305	307.837	1.0093	148.085	159.752	0.23805
306	306	308.776	1.00907	148.517	160.258	0.238177
307	307	309.684	1.00874	148.932	160.752	0.238303
308	308	310.621	1.00851	149.364	161.257	0.238428
309	309	311.528	1.00818	149.781	161.747	0.238553
310	310	312.445	1.00789	150.202	162.244	0.238677
311	311	313.374	1.00763	150.628	162.746	0.238801
312	312	314.309	1.0074	151.055	163.254	0.238924
313	313	315.198	1.00702	151.464	163.734	0.239046
314	314	316.128	1.00678	151.887	164.241	0.239168
315	315	317.063	1.00655	152.319	164.744	0.239289
316	316	317.981	1.00627	152.741	165.24	0.239409
317	317	318.901	1.006	153.162	165.74	0.239529
318	318	319.789	1.00563	153.569	166.221	0.239649
319	319	320.734	1.00544	154.004	166.73	0.239767
320	320	321.631	1.0051	154.415	167.216	0.239886
321	321	322.545	1.00481	154.832	167.713	0.240003
322	322	323.463	1.00454	155.253	168.209	0.240121
323	323	324.387	1.00429	155.679	168.708	0.240238
324	324	325.327	1.0041	156.11	169.217	0.240354
325	325	326.217	1.00374	156.517	169.7	0.24047
326	326	327.16	1.00356	156.952	170.209	0.240585
327	327	328.085	1.00332	157.374	170.711	0.2407
328	328	328.99	1.00302	157.787	171.203	0.240814
329	329	329.886	1.00269	158.198	171.688	0.240928
330	330	330.821	1.00249	158.63	172.191	0.241042
331	331	331.719	1.00217	159.039	172.68	0.241155
332	332	332.652	1.00196	159.465	173.187	0.241268
333	333	333.578	1.00174	159.891	173.687	0.241381
334	334	334.482	1.00144	160.306	174.176	0.241493
335	335	335.389	1.00116	160.723	174.666	0.241605
336	336	336.335	1.001	161.156	175.18	0.241716
337	337	337.232	1.00069	161.568	175.664	0.241827
338	338	338.139	1.00041	161.984	176.155	0.241938
339	339	339.057	1.00017	162.405	176.652	0.242048
340	340	339.987	0.999962	162.831	177.157	0.242158
341	341	340.886	0.999665	163.24	177.646	0.242268
342	342	341.818	0.999468	163.669	178.149	0.242378
343	343	342.719	0.999182	164.083	178.637	0.242487
344	344	343.632	0.99893	164.501	179.131	0.242596
345	345	344.557	0.998716	164.925	179.632	0.242704
346	346	345.474	0.998479	165.341	180.133	0.242813
347	347	346.378	0.998207	165.759	180.619	0.242921
348	348	347.281	0.997935	166.17	181.112	0.243029
349	349	348.202	0.997713	166.591	181.611	0.243137
350	350	349.109	0.997455	167.007	182.102	0.243244
351	351	350.033	0.997246	167.433	182.6	0.243351
352	352	350.971	0.997078	167.861	183.111	0.243458
353	353	351.858	0.996766	168.269	183.59	0.243564
354	354	352.768	0.99652	168.682	184.086	0.243669
355	355	353.693	0.996319	169.105	184.589	0.243774
356	356	354.609	0.996093	169.524	185.085	0.243879
357	357	355.512	0.995831	169.939	185.573	0.243983
358	358	356.421	0.995591	170.358	186.064	0.244087
359	359	357.361	0.995433	170.787	186.574	0.24419
360	360	358.247	0.995131	171.193	187.054	0.244293
361	361	359.163	0.994911	171.61	187.552	0.244395
362	362	360.085	0.994711	172.031	188.054	0.244497
363	363	360.994	0.994475	172.447	188.547	0.244598
364	364	361.895	0.994217	172.861	189.034	0.244699
365	365	362.814	0.994011	173.284	189.529	0.2448
366	366	363.744	0.993835	173.708	190.036	0.2449
367	367	364.643	0.993577	174.122	190.521	0.245
368	368	365.541	0.993318	174.531	191.01	0.2451
369	369	366.452	0.993094	174.947	191.505	0.245199
370	370	367.364	0.992875	175.365	191.999	0.245297
371	371	368.286	0.992684	175.789	192.497	0.245396
372	372	369.219	0.992525	176.214	193.005	0.245494
373	373	370.101	0.992229	176.619	193.483	0.245592
374	374	371.028	0.992054	177.042	193.986	0.245689
375	375	371.953	0.991874	177.465	194.488	0.245786
376	376	372.862	0.991655	177.881	194.981	0.245882
377	377	373.762	0.991412	178.291	195.471	0.245979
378	378	374.651	0.991142	178.699	195.953	0.246075
379	379	375.585	0.990989	179.128	196.457	0.246171
380	380	376.473	0.990717	179.532	196.94	0.246266
381	381	377.411	0.990579	179.964	197.447	0.246361
382	382	378.326	0.990382	180.38	197.946	0.246456
383	383	379.225	0.990144	180.79	198.435	0.246551
384	384	380.115	0.989883	181.197	198.918	0.246645
385	385	381.036	0.989705	181.622	199.415	0.246739
386	386	381.95	0.989507	182.038	199.912	0.246833
387	387	382.868	0.989324	182.459	200.409	0.246927
388	388	383.768	0.989092	182.871	200.897	0.24702
389	389	384.677	0.988886	183.287	201.39	0.247113
390	390	385.596	0.988707	183.706	201.889	0.247206
391	391	386.502	0.988495	184.12	202.381	0.247299
392	392	387.4	0.988266	184.532	202.868	0.247391
393	393	388.303	0.988047	184.942	203.361	0.247483
394	394	389.236	0.987909	185.369	203.867	0.247575
395	395	390.149	0.98772	185.787	204.362	0.247667
396	396	391.04	0.987475	186.192	204.848	0.247759
397	397	391.932	0.987235	186.602	205.33	0.24785
398	398	392.864	0.987097	187.03	205.834	0.247942
399	399	393.749	0.986841	187.433	206.317	0.248033
400	400	394.676	0.98669	187.857	206.819	0.248123
401	401	395.589	0.986507	188.273	207.316	0.248214
402	402	396.491	0.986296	188.684	207.807	0.248304
403	403	397.386	0.98607	189.094	208.292	0.248394
404	404	398.295	0.985879	189.512	208.783	0.248484
405	405	399.228	0.985748	189.938	209.29	0.248573
406	406	400.107	0.985486	190.34	209.767	0.248662
407	407	401.036	0.985347	190.765	210.271	0.24875
408	408	401.95	0.985171	191.182	210.768	0.248839
409	409	402.852	0.984969	191.595	211.257	0.248926
410	410	403.762	0.984786	192.01	211.752	0.249014
411	411	404.666	0.984588	192.421	212.244	0.249101
412	412	405.548	0.984339	192.825	212.723	0.249188
413	413	406.478	0.984208	193.252	213.226	0.249275
414	414	407.361	0.983965	193.653	213.708	0.249361
415	415	408.297	0.983848	194.081	214.216	0.249447
416	416	409.202	0.983659	194.496	214.706	0.249532
417	417	410.106	0.983467	194.909	215.196	0.249618
418	418	411.017	0.983294	195.325	215.692	0.249703
419	419	411.911	0.983081	195.73	216.181	0.249788
420	420	412.802	0.982863	196.14	216.662	0.249872
421	421	413.737	0.982748	196.568	217.169	0.249956
422	422	414.618	0.982507	196.971	217.648	0.250041
423	423	415.524	0.982327	197.382	218.142	0.250124
424	424	416.44	0.982169	197.799	218.641	0.250208
425	425	417.346	0.981991	198.213	219.133	0.250291
426	426	418.243	0.981791	198.624	219.619	0.250374
427	427	419.146	0.981608	199.039	220.108	0.250457
428	428	420.077	0.981487	199.464	220.613	0.250539
429	429	420.954	0.981245	199.864	221.091	0.250622
430	430	421.88	0.981115	200.284	221.595	0.250704
431	431	422.792	0.980955	200.704	222.088	0.250786
432	432	423.693	0.98077	201.116	222.577	0.250867
433	433	424.601	0.980603	201.53	223.071	0.250949
434	434	425.505	0.980425	201.941	223.564	0.25103
435	435	426.384	0.980194	202.343	224.041	0.251111
436	436	427.316	0.980082	202.77	224.546	0.251192
437	437	428.196	0.979854	203.171	225.025	0.251273
438	438	429.111	0.979705	203.588	225.523	0.251353
439	439	430.027	0.979559	204.005	226.021	0.251433
440	440	430.929	0.979384	204.417	226.512	0.251514
441	441	431.82	0.979185	204.825	226.996	0.251594
442	442	432.721	0.979007	205.238	227.483	0.251673
443	443	433.651	0.978896	205.662	227.989	0.251753
444	444	434.528	0.978667	206.063	228.466	0.251832
445	445	435.446	0.978529	206.481	228.965	0.251912
446	446	436.368	0.978403	206.901	229.466	0.251991
447	447	437.27	0.978232	207.314	229.956	0.25207
448	448	438.161	0.978038	207.718	230.443	0.252148
449	449	439.044	0.977827	208.122	230.922	0.252227
450	450	439.966	0.977702	208.546	231.42	0.252306
451	451	440.86	0.977516	208.951	231.909	0.252384
452	452	441.781	0.977392	209.374	232.407	0.252462
453	453	442.667	0.977191	209.779	232.889	0.25254
454	454	443.563	0.977011	210.186	233.377	0.252617
455	455	444.465	0.976846	210.597	233.868	0.252694
456	456	445.37	0.976689	211.011	234.359	0.252771
457	457	446.283	0.97655	211.429	234.854	0.252848
458	458	447.205	0.976429	211.849	235.356	0.252925
459	459	448.078	0.976205	212.245	235.833	0.253001
460	460	449.006	0.976099	212.671	236.334	0.253077
461	461	449.886	0.975891	213.072	236.814	0.253153
462	462	450.797	0.975751	213.487	237.31	0.253228
463	463	451.714	0.975624	213.905	237.809	0.253303
464	464	452.623	0.975481	214.321	238.303	0.253378
465	465	453.509	0.975288	214.722	238.787	0.253453
466	466	454.397	0.975101	215.129	239.268	0.253528
467	467	455.31	0.974967	215.548	239.761	0.253603
468	468	456.232	0.974854	215.967	240.265	0.253677
469	469	457.111	0.974651	216.37	240.741	0.253751
470	470	458.014	0.974498	216.779	241.235	0.253824
471	471	458.941	0.974397	217.203	241.738	0.253898
472	472	459.836	0.97423	217.613	242.224	0.253971
473	473	460.738	0.974076	218.024	242.714	0.254045
474	474	461.646	0.973937	218.438	243.208	0.254118
475	475	462.527	0.973741	218.838	243.688	0.25419
476	476	463.423	0.973578	219.249	244.174	0.254263
477	477	464.353	0.973487	219.672	244.681	0.254335
478	478	465.228	0.97328	220.073	245.155	0.254408
479	479	466.125	0.973122	220.479	245.646	0.25448
480	480	467.047	0.973014	220.9	246.147	0.254552
481	481	467.958	0.972885	221.317	246.641	0.254624
482	482	468.858	0.972734	221.727	247.131	0.254695
483	483	469.742	0.97255	222.13	247.612	0.254767
484	484	470.63	0.972376	222.536	248.094	0.254838
485	485	471.555	0.972278	222.958	248.596	0.254909
486	486	472.43	0.972077	223.355	249.074	0.25498
487	487	473.364	0.972	223.782	249.582	0.255051
488	488	474.25	0.971824	224.188	250.062	0.255121
489	489	475.142	0.97166	224.594	250.547	0.255192
490	490	476.041	0.971512	225.005	251.036	0.255262
491	491	476.948	0.971381	225.419	251.53	0.255333
492	492	477.862	0.971265	225.835	252.028	0.255403
493	493	478.744	0.971083	226.235	252.509	0.255472
494	494	479.65	0.970952	226.651	253	0.255542
495	495	480.541	0.97079	227.054	253.487	0.255612
496	496	481.468	0.970701	227.478	253.989	0.255682
497	497	482.357	0.970537	227.885	254.472	0.255751
498	498	483.253	0.970387	228.294	254.959	0.25582
499	499	484.156	0.970253	228.705	255.451	0.25589
500	500	485.067	0.970134	229.12	255.947	0.255959
501	501	485.948	0.969955	229.52	256.428	0.256028
502	502	486.846	0.969813	229.932	256.914	0.256096
503	503	487.761	0.969704	230.346	257.415	0.256165
504	504	488.649	0.969542	230.754	257.895	0.256233
505	505	489.537	0.96938	231.156	258.381	0.256301
506	506	490.457	0.969283	231.575	258.883	0.256369
507	507	491.367	0.969165	231.992	259.375	0.256437
508	508	492.265	0.969025	232.401	259.863	0.256504
509	509	493.167	0.968894	232.812	260.355	0.256572
510	510	494.061	0.968747	233.221	260.84	0.256639
511	511	494.933	0.968558	233.617	261.317	0.256706
512	512	495.852	0.968461	234.037	261.814	0.256773
513	513	496.746	0.968315	234.443	262.303	0.256839
514	514	497.651	0.968192	234.857	262.793	0.256905
515	515	498.53	0.96802	235.256	263.274	0.256972
516	516	499.454	0.967934	235.679	263.775	0.257038
517	517	500.362	0.967818	236.092	264.27	0.257104
518	518	501.258	0.96768	236.501	264.757	0.257169
519	519	502.159	0.967552	236.911	265.248	0.257235
520	520	503.038	0.967381	237.308	265.73	0.2573
521	521	503.924	0.967224	237.714	266.21	0.257365
522	522	504.84	0.967126	238.134	266.706	0.25743
523	523	505.744	0.967006	238.546	267.198	0.257495
524	524	506.636	0.966863	238.953	267.683	0.25756
525	525	507.519	0.966702	239.352	268.166	0.257625
526	526	508.44	0.966617	239.772	268.668	0.257689
527	527	509.345	0.9665	240.187	269.159	0.257753
528	528	510.24	0.966364	240.595	269.645	0.257818
529	529	511.141	0.966241	241.005	270.136	0.257881
530	530	512.041	0.966114	241.414	270.627	0.257945
531	531	512.911	0.965934	241.809	271.102	0.258009
532	532	513.819	0.965825	242.226	271.593	0.258073
533	533	514.728	0.965718	242.637	272.091	0.258136
534	534	515.615	0.965571	243.044	272.57	0.258199
535	535	516.505	0.965429	243.447	273.058	0.258263
536	536	517.433	0.96536	243.871	273.562	0.258326
537	537	518.324	0.965222	244.278	274.046	0.258389
538	538	519.219	0.965091	244.686	274.533	0.258451
539	539	520.12	0.964972	245.097	275.023	0.258514
540	540	521.022	0.964856	245.506	275.516	0.258577
541	541	521.89	0.964676	245.901	275.989	0.258639
542	542	522.799	0.964574	246.318	276.481	0.258701
543	543	523.698	0.964452	246.723	276.975	0.258764
544	544	524.596	0.964331	247.137	277.459	0.258826
545	545	525.478	0.96418	247.536	277.942	0.258888
546	546	526.389	0.964082	247.949	278.44	0.25895
547	547	527.307	0.963999	248.37	278.937	0.259011
548	548	528.203	0.963874	248.779	279.424	0.259073
549	549	529.095	0.963743	249.184	279.911	0.259135
550	550	529.971	0.963584	249.583	280.389	0.259196
551	551	530.867	0.963461	249.993	280.874	0.259258
552	552	531.787	0.963382	250.412	281.375	0.259319
553	553	532.656	0.963212	250.806	281.85	0.25938
554	554	533.58	0.96314	251.229	282.351	0.259441
555	555	534.453	0.962979	251.626	282.827	0.259501
556	556	535.36	0.962879	252.038	283.322	0.259562
557	557	536.277	0.962795	252.456	283.82	0.259622
558	558	537.167	0.962664	252.863	284.304	0.259682
559	559	538.061	0.962543	253.27	284.791	0.259743
560	560	538.961	0.96243	253.68	285.281	0.259802
561	561	539.865	0.962326	254.091	285.774	0.259862
562	562	540.735	0.962161	254.486	286.249	0.259922
563	563	541.63	0.962042	254.896	286.734	0.259981
564	564	542.551	0.961969	255.314	287.236	0.260041
565	565	543.417	0.9618	255.708	287.709	0.2601
566	566	544.346	0.961742	256.132	288.214	0.260159
567	567	545.222	0.96159	256.532	288.69	0.260218
568	568	546.105	0.961453	256.932	289.173	0.260277
569	569	547.013	0.961358	257.345	289.667	0.260335
570	570	547.911	0.961247	257.752	290.159	0.260394
571	571	548.822	0.961159	258.172	290.65	0.260452
572	572	549.7	0.961014	258.569	291.131	0.260511
573	573	550.586	0.960884	258.973	291.613	0.260569
574	574	551.496	0.960795	259.39	292.106	0.260627
575	575	552.413	0.960718	259.805	292.607	0.260685
576	576	553.276	0.960549	260.199	293.077	0.260743
577	577	554.203	0.960491	260.621	293.582	0.2608
578	578	555.076	0.960338	261.02	294.056	0.260858
579	579	555.963	0.960212	261.421	294.542	0.260915
580	580	556.876	0.960131	261.836	295.04	0.260973
581	581	557.786	0.960045	262.252	295.534	0.26103
582	582	558.68	0.959931	262.66	296.02	0.261087
583	583	559.579	0.959827	263.068	296.511	0.261144
584	584	560.463	0.959697	263.472	296.991	0.261201
585	585	561.335	0.959547	263.868	297.468	0.261258
586	586	562.248	0.959467	264.286	297.962	0.261314
587	587	563.14	0.959353	264.687	298.453	0.261371
588	588	564.033	0.95924	265.098	298.935	0.261427
589	589	564.928	0.959131	265.503	299.425	0.261484
590	590	565.841	0.959052	265.921	299.92	0.26154
591	591	566.721	0.958919	266.322	300.399	0.261596
592	592	567.608	0.958797	266.725	300.882	0.261652
593	593	568.5	0.958685	267.131	301.369	0.261708
594	594	569.397	0.958581	267.54	301.857	0.261764
595	595	570.3	0.958488	267.952	302.348	0.26182
596	596	571.209	0.958404	268.365	302.844	0.261876
597	597	572.1	0.958292	268.77	303.33	0.261931
598	598	572.98	0.95816	269.171	303.809	0.261987
599	599	573.899	0.958095	269.588	304.311	0.262042
600	600	574.774	0.957957	269.988	304.785	0.262098
601	601	575.661	0.957838	270.389	305.272	0.262153
602	602	576.587	0.957786	270.812	305.775	0.262208
603	603	577.471	0.957664	271.216	306.255	0.262263
604	604	578.359	0.957548	271.621	306.738	0.262318
605	605	579.251	0.957439	272.027	307.224	0.262373
606	606	580.148	0.95734	272.435	307.713	0.262428
607	607	581.049	0.957248	272.845	308.204	0.262482
608	608	581.955	0.957162	273.255	308.699	0.262536
609	609	582.819	0.957011	273.648	309.172	0.262591
610	610	583.719	0.956916	274.06	309.658	0.262645
611	611	584.639	0.956855	274.477	310.161	0.262699
612	612	585.502	0.956702	274.871	310.631	0.262753
613	613	586.42	0.95664	275.288	311.132	0.262806
614	614	587.303	0.956519	275.692	311.611	0.26286
615	615	588.181	0.956392	276.09	312.092	0.262914
616	616	589.088	0.956312	276.502	312.586	0.262967
617	617	589.995	0.956232	276.915	313.081	0.26302
618	618	590.898	0.956146	277.327	313.572	0.263073
619	619	591.791	0.956044	277.733	314.058	0.263127
620	620	592.666	0.955913	278.128	314.538	0.263179
621	621	593.548	0.955794	278.531	315.017	0.263232
622	622	594.446	0.9557	278.942	315.503	0.263285
623	623	595.36	0.955633	279.358	316.001	0.263338
624	624	596.232	0.955501	279.753	316.479	0.26339
625	625	597.14	0.955424	280.169	316.971	0.263443
626	626	598.018	0.9553	280.565	317.452	0.263495
627	627	598.939	0.955245	280.987	317.952	0.263548
628	628	599.814	0.955118	281.386	318.428	0.2636
629	629	600.697	0.955003	281.786	318.911	0.263652
630	630	601.594	0.954912	282.193	319.401	0.263704
631	631	602.497	0.954828	282.605	319.892	0.263756
632	632	603.388	0.954728	283.01	320.378	0.263807
633	633	604.272	0.954616	283.412	320.86	0.263859
634	634	605.167	0.954522	283.821	321.346	0.263911
635	635	606.076	0.95445	284.236	321.84	0.263962
636	636	606.982	0.954374	284.646	322.336	0.264014
637	637	607.846	0.954233	285.04	322.806	0.264065
638	638	608.768	0.954182	285.46	323.308	0.264116
639	639	609.634	0.954044	285.854	323.78	0.264168
640	640	610.541	0.95397	286.263	324.277	0.264219
641	641	611.442	0.953888	286.678	324.765	0.26427
642	642	612.322	0.953773	287.078	325.244	0.264321
643	643	613.208	0.953666	287.48	325.727	0.264372
644	644	614.099	0.953569	287.885	326.214	0.264422
645	645	614.993	0.953477	288.292	326.701	0.264473
646	646	615.891	0.953391	288.702	327.189	0.264524
647	647	616.795	0.953316	289.114	327.682	0.264574
648	648	617.704	0.953246	289.526	328.178	0.264625
649	649	618.564	0.953103	289.915	328.648	0.264675
650	650	619.475	0.953039	290.333	329.142	0.264725
651	651	620.358	0.95293	290.732	329.626	0.264776
652	652	621.264	0.952858	291.147	330.117	0.264826
653	653	622.135	0.952734	291.541	330.594	0.264876
654	654	623.048	0.952673	291.955	331.093	0.264926
655	655	623.946	0.952589	292.367	331.579	0.264975
656	656	624.827	0.95248	292.768	332.059	0.265025
657	657	625.713	0.952378	293.171	332.542	0.265075
658	658	626.603	0.952284	293.575	333.027	0.265124
659	659	627.496	0.952195	293.982	333.514	0.265174
660	660	628.394	0.952113	294.391	334.003	0.265223
661	661	629.297	0.952037	294.802	334.495	0.265272
662	662	630.202	0.951967	295.212	334.99	0.265321
663	663	631.066	0.951834	295.604	335.462	0.26537
664	664	631.966	0.951755	296.016	335.949	0.265419
665	665	632.877	0.951695	296.429	336.448	0.265468
666	666	633.745	0.951569	296.825	336.92	0.265517
667	667	634.653	0.951504	297.235	337.418	0.265565
668	668	635.541	0.951408	297.643	337.898	0.265614
669	669	636.416	0.951295	298.039	338.378	0.265662
670	670	637.331	0.951241	298.456	338.875	0.265711
671	671	638.234	0.951168	298.866	339.367	0.265759
672	672	639.12	0.951071	299.27	339.85	0.265807
673	673	640.01	0.95098	299.675	340.334	0.265855
674	674	640.904	0.950895	300.082	340.822	0.265903
675	675	641.801	0.950816	300.489	341.312	0.265951
676	676	642.678	0.950707	300.885	341.793	0.265999
677	677	643.554	0.950597	301.285	342.269	0.266047
678	678	644.458	0.950529	301.699	342.759	0.266095
679	679	645.373	0.950476	302.114	343.259	0.266142
680	680	646.231	0.95034	302.504	343.727	0.26619
681	681	647.153	0.950298	302.924	344.229	0.266237
682	682	648.018	0.950174	303.318	344.7	0.266285
683	683	648.93	0.950117	303.733	345.197	0.266332
684	684	649.824	0.950034	304.14	345.684	0.266379
685	685	650.701	0.949929	304.539	346.162	0.266427
686	686	651.584	0.949831	304.94	346.644	0.266474
687	687	652.473	0.949743	305.343	347.13	0.266521
688	688	653.365	0.949658	305.748	347.617	0.266568
689	689	654.257	0.949575	306.155	348.102	0.266614
690	690	655.154	0.949498	306.564	348.59	0.266661
691	691	656.057	0.949431	306.975	349.081	0.266708
692	692	656.964	0.949369	307.387	349.577	0.266755
693	693	657.826	0.949244	307.777	350.049	0.266801
694	694	658.729	0.949178	308.191	350.538	0.266848
695	695	659.634	0.949114	308.603	351.032	0.266894
696	696	660.512	0.949011	309.002	351.51	0.266941
697	697	661.395	0.948916	309.4	351.995	0.266987
698	698	662.311	0.94887	309.819	352.492	0.267033
699	699	663.186	0.948764	310.218	352.968	0.26708
700	700	664.066	0.948666	310.617	353.449	0.267126
701	701	664.956	0.948582	311.02	353.936	0.267172
702	702	665.851	0.948506	311.427	354.424	0.267218
703	703	666.744	0.948426	311.833	354.911	0.267264
704	704	667.631	0.948339	312.237	355.394	0.267309
705	705	668.521	0.948257	312.643	355.879	0.267355
706	706	669.421	0.948188	313.054	356.367	0.267401
707	707	670.327	0.948129	313.466	356.862	0.267446
708	708	671.209	0.948036	313.863	357.347	0.267492
709	709	672.088	0.947938	314.266	357.822	0.267537
710	710	673.005	0.947894	314.683	358.322	0.267583
711	711	673.868	0.947775	315.074	358.794	0.267628
712	712	674.788	0.947736	315.494	359.294	0.267673
713	713	675.654	0.947622	315.888	359.766	0.267718
714	714	676.561	0.947565	316.3	360.261	0.267763
715	715	677.46	0.947497	316.709	360.751	0.267808
716	716	678.337	0.947399	317.109	361.228	0.267853
717	717	679.219	0.947307	317.509	361.71	0.267898
718	718	680.106	0.947222	317.911	362.194	0.267943
719	719	680.996	0.947143	318.316	362.68	0.267988
720	720	681.887	0.947066	318.722	363.166	0.268032
721	721	682.782	0.946993	319.13	363.652	0.268077
722	722	683.682	0.946928	319.54	364.142	0.268121
723	723	684.587	0.946869	319.95	364.636	0.268166
724	724	685.474	0.946787	320.354	365.12	0.26821
725	725	686.344	0.946682	320.749	365.595	0.268255
726	726	687.26	0.946638	321.166	366.094	0.268299
727	727	688.122	0.946523	321.556	366.566	0.268343
728	728	689.04	0.946483	321.976	367.064	0.268387
729	729	689.905	0.946372	322.368	367.537	0.268431
730	730	690.813	0.946319	322.779	368.034	0.268475
731	731	691.708	0.946249	323.189	368.519	0.268519
732	732	692.584	0.946153	323.588	368.996	0.268563
733	733	693.467	0.946066	323.987	369.479	0.268607
734	734	694.358	0.945992	324.391	369.967	0.26865
735	735	695.252	0.945921	324.798	370.454	0.268694
736	736	696.141	0.945843	325.202	370.939	0.268738
737	737	697.028	0.945764	325.606	371.422	0.268781
738	738	697.923	0.945695	326.015	371.908	0.268825
739	739	698.826	0.945638	326.426	372.4	0.268868
740	740	699.732	0.945584	326.837	372.895	0.268912
741	741	700.591	0.945467	327.226	373.365	0.268955
742	742	701.497	0.945413	327.641	373.856	0.268998
743	743	702.392	0.945346	328.047	374.345	0.269041
744	744	703.276	0.945263	328.45	374.826	0.269085
745	745	704.156	0.945176	328.847	375.309	0.269128
746	746	705.07	0.945134	329.265	375.806	0.269171
747	747	705.942	0.945036	329.662	376.28	0.269214
748	748	706.822	0.944949	330.06	376.762	0.269257
749	749	707.723	0.94489	330.469	377.254	0.2693
750	750	708.619	0.944825	330.875	377.744	0.269343
268.6	265.702	270.069	1.01644	129.669	140.401	0.235551
268.7	264.01	267.531	1.01334	128.046	139.486	0.237164
268.8	262.665	265.542	1.01095	126.827	138.714	0.238436
268.9	261.508	263.864	1.00901	125.834	138.03	0.239401
269	260.477	262.394	1.00736	124.983	137.411	0.240181
269.1	259.538	261.075	1.00592	124.232	136.843	0.240839
269.2	258.668	259.867	1.00463	123.553	136.314	0.241412
269.3	257.852	258.744	1.00346	122.928	135.816	0.241925
269.4	257.084	257.699	1.00239	122.351	135.348	0.242386
269.5	256.359	256.719	1.00141	121.814	134.905	0.242804
269.6	255.666	255.79	1.00048	121.308	134.482	0.243192
269.7	255.004	254.908	0.999624	120.83	134.078	0.243551
269.8	254.37	254.069	0.998817	120.378	133.691	0.243885
269.9	253.759	253.265	0.998052	119.946	133.319	0.244199
270	253.169	252.492	0.997326	119.533	132.959	0.244496
270.1	252.599	251.75	0.996637	119.137	132.613	0.244777
270.2	252.047	251.034	0.995979	118.757	132.277	0.245043
270.3	251.511	250.341	0.995348	118.39	131.951	0.245297
270.4	250.99	249.67	0.994743	118.035	131.635	0.245541
270.5	250.483	249.02	0.994162	117.693	131.327	0.245773
270.6	249.988	248.389	0.993602	117.361	131.028	0.245997
270.7	249.504	247.772	0.993058	117.037	130.735	0.246214
270.8	249.03	247.17	0.992531	116.722	130.448	0.246424
270.9	248.566	246.582	0.99202	116.415	130.167	0.246627
271	248.111	246.009	0.991525	116.115	129.893	0.246824
272	244.037	240.936	0.987293	113.49	127.446	0.248489
273	240.553	236.684	0.983913	111.314	125.369	0.249808
274	237.474	232.979	0.981072	109.433	123.546	0.250914
275	234.696	229.676	0.97861	107.766	121.91	0.251873
276	232.155	226.683	0.976429	106.263	120.42	0.252722
277	229.809	223.942	0.97447	104.891	119.051	0.253484
278	227.622	221.404	0.972685	103.626	117.778	0.254181
279	225.57	219.038	0.971043	102.449	116.589	0.254823
280	223.636	216.82	0.969522	101.349	115.471	0.255418
281	221.803	214.728	0.968102	100.314	114.415	0.255976
282	220.062	212.75	0.966772	99.3364	113.413	0.256499
283	218.4	210.869	0.965517	98.4091	112.46	0.256995
284	216.812	209.078	0.96433	97.5274	111.551	0.257464
285	215.288	207.366	0.963202	96.6859	110.68	0.257911
286	213.824	205.727	0.962129	95.8813	109.845	0.258338
287	212.415	204.153	0.961103	95.1098	109.043	0.258747
288	211.057	202.64	0.960122	94.3692	108.271	0.259139
289	209.744	201.182	0.95918	93.6562	107.526	0.259516
290	208.475	199.777	0.958275	92.9693	106.807	0.25988
291	207.245	198.417	0.957403	92.3058	106.111	0.260232
292	206.053	197.103	0.956562	91.6649	105.438	0.260572
293	204.895	195.829	0.955749	91.0441	104.785	0.260902
294	203.771	194.594	0.954963	90.4429	104.151	0.261222
295	202.677	193.394	0.954201	89.8596	103.535	0.261533
296	201.612	192.229	0.953463	89.2932	102.936	0.261836
297	200.574	191.096	0.952746	88.7431	102.353	0.262131
298	199.563	189.993	0.952049	88.2078	101.786	0.262418
299	198.576	188.919	0.951372	87.6868	101.233	0.262698
300	197.609	187.869	0.95071	87.1778	100.691	0.262976
301	196.662	186.841	0.950061	86.6795	100.161	0.263252
302	195.733	185.834	0.949427	86.1921	99.6418	0.263526
303	194.823	184.849	0.948806	85.7154	99.1335	0.263798
304	193.931	183.885	0.948198	85.2494	98.6359	0.264065
305	193.058	182.943	0.947604	84.7938	98.1491	0.264329
306	192.204	182.021	0.947023	84.3486	97.6728	0.264587
307	191.367	181.121	0.946456	83.9137	97.2071	0.26484
308	190.549	180.241	0.945902	83.4888	96.7517	0.265086
309	189.748	179.381	0.94536	83.074	96.3067	0.265326
310	188.966	178.541	0.944832	82.669	95.8718	0.265558
311	188.2	177.721	0.944316	82.2737	95.4471	0.265783
312	187.453	176.92	0.943814	81.888	95.0323	0.265999
313	186.72	176.137	0.943322	81.511	94.6264	0.266209
314	185.999	175.367	0.942838	81.1402	94.227	0.266418
315	185.289	174.61	0.942361	80.7756	93.834	0.266627
316	184.59	173.864	0.941892	80.417	93.4472	0.266834
317	183.902	173.131	0.941431	80.0645	93.0666	0.267039
318	183.225	172.41	0.940977	79.7179	92.6922	0.267243
319	182.558	171.701	0.94053	79.3773	92.324	0.267445
320	181.902	171.004	0.940091	79.0426	91.9619	0.267643
321	181.257	170.32	0.939659	78.7137	91.6059	0.267839
322	180.622	169.647	0.939235	78.3906	91.256	0.268032
323	179.998	168.985	0.938818	78.0732	90.912	0.268221
324	179.384	168.336	0.938408	77.7616	90.5741	0.268406
325	178.781	167.698	0.938005	77.4556	90.2421	0.268587
326	178.188	167.071	0.937609	77.1552	89.9159	0.268764
327	177.606	166.456	0.937221	76.8604	89.5957	0.268936
328	177.033	165.852	0.936839	76.5708	89.2809	0.269104
329	176.468	165.255	0.936462	76.285	88.9701	0.269272
330	175.909	164.666	0.936089	76.0031	88.6633	0.269439
331	175.357	164.085	0.935721	75.7248	88.3604	0.269606
332	174.812	163.512	0.935358	75.4502	88.0613	0.269772
333	174.273	162.945	0.934999	75.1794	87.7661	0.269937
334	173.742	162.387	0.934645	74.9122	87.4747	0.270102
335	173.217	161.836	0.934296	74.6486	87.1872	0.270265
336	172.699	161.292	0.933951	74.3887	86.9034	0.270426
337	172.187	160.756	0.93361	74.1324	86.6235	0.270586
338	171.683	160.227	0.933274	73.8796	86.3474	0.270744
339	171.185	159.705	0.932943	73.6305	86.075	0.2709
340	170.693	159.191	0.932616	73.3848	85.8064	0.271054
341	170.208	158.684	0.932293	73.1427	85.5415	0.271205
342	169.73	158.184	0.931975	72.9041	85.2803	0.271354
343	169.259	157.692	0.931662	72.6691	85.0229	0.2715
344	168.794	157.207	0.931353	72.4374	84.7691	0.271643
345	168.334	156.727	0.931047	72.2086	84.5183	0.271786
346	167.879	156.252	0.930744	71.9821	84.2701	0.271928
347	167.428	155.782	0.930445	71.7581	84.0243	0.272071
348	166.981	155.318	0.930148	71.5365	83.7811	0.272214
349	166.54	154.858	0.929855	71.3173	83.5403	0.272356
350	166.102	154.402	0.929565	71.1004	83.3021	0.272498
351	165.669	153.953	0.929277	70.886	83.0665	0.27264
352	165.241	153.508	0.928993	70.6743	82.8337	0.27278
353	164.818	153.069	0.928712	70.4651	82.6037	0.272919
354	164.4	152.635	0.928434	70.2586	82.3764	0.273056
355	163.987	152.207	0.92816	70.0546	82.152	0.273192
356	163.579	151.783	0.927888	69.8531	81.9302	0.273326
357	163.176	151.366	0.92762	69.6543	81.7112	0.273458
358	162.778	150.953	0.927355	69.458	81.495	0.273588
359	162.385	150.546	0.927092	69.2642	81.2814	0.273716
360	161.996	150.143	0.926833	69.0729	81.0706	0.273842
361	161.613	149.747	0.926577	68.8841	80.8625	0.273965
362	161.234	149.355	0.926324	68.6977	80.657	0.274087
363	160.858	148.967	0.926074	68.5132	80.4535	0.274208
364	160.487	148.582	0.925825	68.3306	80.2519	0.274329
365	160.118	148.202	0.925579	68.1497	80.0522	0.274449
366	159.753	147.825	0.925335	67.9706	79.8545	0.274569
367	159.392	147.452	0.925093	67.7934	79.6587	0.274689
368	159.033	147.083	0.924854	67.6179	79.4648	0.274808
369	158.679	146.717	0.924617	67.4442	79.2728	0.274927
370	158.327	146.355	0.924382	67.2723	79.0827	0.275044
371	157.98	145.997	0.924149	67.1021	78.8946	0.275161
372	157.635	145.642	0.923918	66.9338	78.7083	0.275277
373	157.294	145.291	0.92369	66.7672	78.5239	0.275392
374	156.957	144.944	0.923464	66.6023	78.3414	0.275506
375	156.622	144.6	0.92324	66.4392	78.1608	0.275619
376	156.292	144.26	0.923018	66.2778	77.9821	0.27573
377	155.964	143.923	0.922798	66.1182	77.8053	0.275841
378	155.64	143.591	0.922581	65.9603	77.6303	0.27595
379	155.32	143.261	0.922365	65.8041	77.4572	0.276057
380	155.002	142.936	0.922152	65.6497	77.286	0.276163
381	154.688	142.613	0.921941	65.4967	77.1164	0.276268
382	154.376	142.293	0.921731	65.345	76.9481	0.276374
383	154.066	141.976	0.921523	65.1945	76.7812	0.276479
384	153.759	141.661	0.921317	65.0453	76.6156	0.276584
385	153.454	141.349	0.921112	64.8974	76.4513	0.27669
386	153.152	141.039	0.920909	64.7506	76.2883	0.276795
387	152.852	140.732	0.920707	64.6051	76.1266	0.2769
388	152.554	140.427	0.920507	64.4608	75.9663	0.277005
389	152.259	140.125	0.920309	64.3178	75.8073	0.277109
390	151.966	139.826	0.920112	64.176	75.6496	0.277214
391	151.675	139.529	0.919917	64.0354	75.4933	0.277317
392	151.387	139.234	0.919723	63.896	75.3382	0.277421
393	151.101	138.942	0.919531	63.7579	75.1845	0.277523
394	150.818	138.653	0.919341	63.6209	75.0321	0.277626
395	150.537	138.366	0.919152	63.4852	74.881	0.277727
396	150.258	138.082	0.918965	63.3507	74.7312	0.277828
397	149.982	137.8	0.918779	63.2174	74.5827	0.277928
398	149.708	137.521	0.918595	63.0853	74.4355	0.278028
399	149.436	137.244	0.918413	62.9544	74.2896	0.278127
400	149.167	136.97	0.918232	62.8246	74.1449	0.278225
401	148.899	136.697	0.918052	62.6958	74.0013	0.278323
402	148.634	136.427	0.917873	62.5681	73.8588	0.27842
403	148.37	136.159	0.917696	62.4414	73.7175	0.278518
404	148.109	135.893	0.917521	62.3157	73.5772	0.278615
405	147.85	135.629	0.917346	62.191	73.4381	0.278712
406	147.592	135.368	0.917173	62.0674	73.3001	0.278808
407	147.337	135.108	0.917001	61.9448	73.1633	0.278904
408	147.084	134.851	0.91683	61.8233	73.0275	0.278999
409	146.832	134.596	0.916661	61.7027	72.8929	0.279094
410	146.583	134.343	0.916493	61.5832	72.7594	0.279188
411	146.336	134.092	0.916326	61.4647	72.627	0.279282
412	146.091	133.843	0.916161	61.3472	72.4957	0.279374
413	145.848	133.596	0.915997	61.2308	72.3655	0.279466
414	145.607	133.352	0.915834	61.1153	72.2364	0.279558
415	145.368	133.109	0.915672	61.0009	72.1085	0.279648
416	145.131	132.869	0.915512	60.8875	71.9816	0.279738
417	144.896	132.631	0.915353	60.775	71.8559	0.279826
418	144.663	132.395	0.915195	60.6636	71.7312	0.279914
419	144.432	132.161	0.915038	60.5532	71.6077	0.280001
420	144.203	131.929	0.914883	60.4437	71.4852	0.280087
421	143.976	131.699	0.914728	60.3351	71.3635	0.280173
422	143.75	131.47	0.914575	60.2271	71.2427	0.280258
423	143.525	131.243	0.914423	60.12	71.1227	0.280344
424	143.302	131.017	0.914271	60.0136	71.0035	0.28043
425	143.081	130.793	0.914121	59.908	70.8852	0.280515
426	142.861	130.571	0.913972	59.8031	70.7677	0.2806
427	142.642	130.35	0.913824	59.699	70.651	0.280685
428	142.425	130.131	0.913676	59.5956	70.5352	0.280769
429	142.21	129.913	0.91353	59.493	70.4201	0.280854
430	141.996	129.697	0.913385	59.3912	70.3059	0.280937
431	141.784	129.483	0.913241	59.2901	70.1926	0.281021
432	141.573	129.27	0.913097	59.1898	70.08	0.281104
433	141.363	129.058	0.912955	59.0902	69.9683	0.281187
434	141.156	128.849	0.912814	58.9914	69.8574	0.281269
435	140.949	128.641	0.912674	58.8933	69.7473	0.281351
436	140.744	128.434	0.912534	58.7959	69.638	0.281432
437	140.541	128.229	0.912396	58.6993	69.5296	0.281512
438	140.339	128.025	0.912259	58.6035	69.4219	0.281592
439	140.139	127.824	0.912122	58.5084	69.3151	0.281672
440	139.94	127.623	0.911987	58.414	69.2091	0.281751
441	139.742	127.424	0.911852	58.3203	69.1038	0.281829
442	139.545	127.226	0.911718	58.227	68.9989	0.281909
443	139.349	127.029	0.911585	58.1341	68.8946	0.281989
444	139.154	126.832	0.911453	58.0418	68.7907	0.282069
445	138.96	126.637	0.911321	57.9499	68.6873	0.28215
446	138.767	126.443	0.91119	57.8585	68.5845	0.282231
447	138.574	126.25	0.91106	57.7675	68.4821	0.282313
448	138.383	126.057	0.910931	57.677	68.3803	0.282395
449	138.192	125.866	0.910802	57.587	68.2789	0.282477
450	138.003	125.675	0.910674	57.4974	68.178	0.28256
451	137.814	125.486	0.910546	57.4084	68.0777	0.282643
452	137.627	125.298	0.91042	57.3199	67.978	0.282726
453	137.44	125.111	0.910294	57.2321	67.879	0.282809
454	137.255	124.925	0.910169	57.1447	67.7805	0.282891
455	137.071	124.741	0.910045	57.058	67.6827	0.282973
456	136.888	124.557	0.909921	56.9718	67.5855	0.283055
457	136.706	124.375	0.909798	56.8862	67.489	0.283137
458	136.526	124.194	0.909676	56.8011	67.3931	0.283219
459	136.346	124.014	0.909555	56.7167	67.2978	0.2833
460	136.168	123.836	0.909435	56.6328	67.2031	0.283381
461	135.991	123.658	0.909315	56.5494	67.109	0.283462
462	135.815	123.482	0.909196	56.4666	67.0156	0.283542
463	135.64	123.307	0.909077	56.3844	66.9228	0.283622
464	135.466	123.133	0.90896	56.3028	66.8306	0.283701
465	135.294	122.961	0.908843	56.2217	66.7391	0.28378
466	135.122	122.789	0.908727	56.1412	66.6481	0.283859
467	134.952	122.619	0.908612	56.0612	66.5578	0.283937
468	134.783	122.45	0.908497	55.9818	66.4681	0.284015
469	134.615	122.282	0.908383	55.9029	66.379	0.284092
470	134.448	122.115	0.90827	55.8246	66.2906	0.284169
471	134.282	121.95	0.908158	55.7469	66.2028	0.284245
472	134.118	121.785	0.908046	55.6697	66.1155	0.28432
473	133.955	121.622	0.907935	55.5931	66.0289	0.284395
474	133.792	121.46	0.907825	55.517	65.943	0.28447
475	133.631	121.299	0.907715	55.4415	65.8576	0.284544
476	133.471	121.139	0.907606	55.3666	65.7729	0.284617
477	133.313	120.981	0.907498	55.2922	65.6887	0.284689
478	133.155	120.824	0.907391	55.2183	65.6052	0.284761
479	132.998	120.667	0.907284	55.145	65.5223	0.284832
480	132.843	120.512	0.907178	55.0722	65.4401	0.284902
481	132.689	120.358	0.907072	55	65.3584	0.284972
482	132.536	120.206	0.906968	54.9284	65.2774	0.285041
483	132.384	120.054	0.906864	54.8572	65.1969	0.285109
484	132.233	119.903	0.90676	54.7865	65.1168	0.285177
485	132.082	119.753	0.906657	54.716	65.0371	0.285246
486	131.932	119.603	0.906555	54.6458	64.9577	0.285315
487	131.782	119.455	0.906453	54.576	64.8786	0.285384
488	131.634	119.306	0.906352	54.5065	64.7999	0.285454
489	131.485	119.159	0.906251	54.4373	64.7215	0.285524
490	131.338	119.012	0.906151	54.3684	64.6435	0.285594
491	131.191	118.866	0.906051	54.2998	64.5658	0.285664
492	131.045	118.72	0.905951	54.2316	64.4885	0.285735
493	130.899	118.575	0.905853	54.1637	64.4115	0.285806
494	130.754	118.431	0.905754	54.0961	64.3348	0.285877
495	130.609	118.287	0.905656	54.0288	64.2585	0.285948
496	130.466	118.144	0.905559	53.9618	64.1825	0.286019
497	130.322	118.002	0.905462	53.8952	64.1069	0.286091
498	130.18	117.86	0.905366	53.8288	64.0316	0.286162
499	130.038	117.719	0.90527	53.7628	63.9567	0.286234
500	129.897	117.579	0.905175	53.6971	63.8821	0.286306
501	129.756	117.44	0.90508	53.6318	63.8078	0.286378
502	129.616	117.301	0.904986	53.5668	63.7341	0.286449
503	129.477	117.163	0.904892	53.5022	63.6608	0.286521
504	129.339	117.026	0.904799	53.4381	63.5879	0.286592
505	129.202	116.89	0.904706	53.3743	63.5155	0.286662
506	129.065	116.754	0.904614	53.311	63.4435	0.286732
507	128.93	116.62	0.904522	53.248	63.3719	0.286802
508	128.795	116.486	0.904431	53.1854	63.3008	0.286872
509	128.661	116.353	0.904341	53.1233	63.2302	0.286941
510	128.528	116.221	0.904251	53.0615	63.1599	0.287009
511	128.396	116.09	0.904161	53.0001	63.0902	0.287078
512	128.264	115.96	0.904072	52.9391	63.0208	0.287145
513	128.133	115.83	0.903983	52.8785	62.9519	0.287213
514	128.003	115.702	0.903895	52.8183	62.8835	0.28728
515	127.874	115.574	0.903808	52.7585	62.8155	0.287346
516	127.746	115.447	0.903721	52.699	62.7479	0.287412
517	127.619	115.321	0.903634	52.64	62.6808	0.287477
518	127.492	115.195	0.903548	52.5814	62.6141	0.287542
519	127.367	115.071	0.903463	52.5231	62.5478	0.287607
520	127.242	114.947	0.903378	52.4652	62.482	0.28767
521	127.118	114.824	0.903293	52.4078	62.4166	0.287734
522	126.994	114.702	0.903209	52.3507	62.3517	0.287796
523	126.872	114.581	0.903126	52.294	62.2872	0.287858
524	126.75	114.461	0.903042	52.2377	62.2232	0.28792
525	126.629	114.341	0.90296	52.1818	62.1596	0.287981
526	126.509	114.223	0.902878	52.1262	62.0964	0.288041
527	126.39	114.105	0.902796	52.0711	62.0336	0.288101
528	126.272	113.987	0.902715	52.0161	61.9711	0.288161
529	126.153	113.87	0.902634	51.9614	61.9089	0.288221
530	126.036	113.754	0.902554	51.907	61.8469	0.288281
531	125.918	113.638	0.902474	51.8527	61.7852	0.288341
532	125.801	113.522	0.902394	51.7987	61.7237	0.288402
533	125.685	113.407	0.902315	51.745	61.6624	0.288463
534	125.569	113.293	0.902236	51.6914	61.6014	0.288524
535	125.453	113.179	0.902157	51.6381	61.5407	0.288585
536	125.338	113.065	0.902079	51.585	61.4802	0.288646
537	125.224	112.952	0.902001	51.5321	61.4199	0.288707
538	125.11	112.839	0.901924	51.4795	61.3599	0.288769
539	124.996	112.727	0.901847	51.4271	61.3001	0.28883
540	124.883	112.616	0.90177	51.3749	61.2406	0.288892
541	124.77	112.504	0.901694	51.3229	61.1814	0.288953
542	124.658	112.394	0.901618	51.2712	61.1223	0.289015
543	124.546	112.283	0.901542	51.2197	61.0636	0.289077
544	124.434	112.173	0.901467	51.1684	61.0051	0.289139
545	124.323	112.064	0.901392	51.1174	60.9468	0.289201
546	124.213	111.955	0.901318	51.0666	60.8888	0.289263
547	124.103	111.847	0.901244	51.016	60.831	0.289325
548	123.993	111.739	0.90117	50.9656	60.7735	0.289387
549	123.884	111.632	0.901096	50.9154	60.7162	0.289449
550	123.776	111.525	0.901023	50.8655	60.6592	0.289511
551	123.667	111.418	0.900951	50.8158	60.6024	0.289573
552	123.56	111.312	0.900878	50.7665	60.546	0.289635
553	123.453	111.207	0.900807	50.7174	60.4899	0.289696
554	123.347	111.103	0.900735	50.6686	60.4341	0.289757
555	123.241	110.999	0.900664	50.62	60.3787	0.289818
556	123.136	110.895	0.900593	50.5718	60.3235	0.289878
557	123.031	110.792	0.900523	50.5238	60.2687	0.289938
558	122.927	110.69	0.900453	50.4761	60.2142	0.289997
559	122.824	110.589	0.900383	50.4287	60.16	0.290057
560	122.721	110.488	0.900314	50.3816	60.1061	0.290115
561	122.619	110.387	0.900245	50.3348	60.0526	0.290174
562	122.518	110.288	0.900176	50.2882	59.9994	0.290232
563	122.417	110.188	0.900108	50.2419	59.9465	0.290289
564	122.317	110.09	0.90004	50.1959	59.8939	0.290346
565	122.217	109.992	0.899972	50.1502	59.8416	0.290403
566	122.118	109.894	0.899905	50.1048	59.7897	0.290459
567	122.019	109.798	0.899838	50.0596	59.738	0.290515
568	121.921	109.701	0.899772	50.0147	59.6867	0.290571
569	121.824	109.606	0.899706	49.9701	59.6357	0.290625
570	121.727	109.511	0.89964	49.9258	59.585	0.29068
571	121.631	109.416	0.899575	49.8818	59.5347	0.290734
572	121.536	109.323	0.89951	49.838	59.4846	0.290787
573	121.441	109.229	0.899445	49.7944	59.4348	0.290841
574	121.346	109.136	0.899381	49.751	59.3851	0.290894
575	121.251	109.043	0.899317	49.7078	59.3357	0.290948
576	121.157	108.951	0.899253	49.6647	59.2864	0.291002
577	121.064	108.859	0.899189	49.6218	59.2373	0.291056
578	120.97	108.767	0.899126	49.5791	59.1884	0.29111
579	120.877	108.676	0.899063	49.5365	59.1397	0.291164
580	120.784	108.585	0.899	49.4941	59.0911	0.291218
581	120.692	108.495	0.898938	49.4519	59.0428	0.291273
582	120.6	108.404	0.898876	49.4098	58.9946	0.291327
583	120.508	108.315	0.898814	49.368	58.9466	0.291381
584	120.417	108.225	0.898752	49.3263	58.8988	0.291436
585	120.326	108.136	0.898691	49.2847	58.8512	0.29149
586	120.235	108.047	0.89863	49.2433	58.8038	0.291545
587	120.145	107.959	0.898569	49.2021	58.7566	0.291599
588	120.055	107.871	0.898509	49.1611	58.7095	0.291654
589	119.966	107.783	0.898449	49.1202	58.6627	0.291708
590	119.876	107.696	0.898389	49.0795	58.616	0.291763
591	119.787	107.609	0.898329	49.039	58.5695	0.291818
592	119.699	107.522	0.89827	48.9986	58.5232	0.291872
593	119.611	107.436	0.898211	48.9584	58.4771	0.291927
594	119.523	107.35	0.898152	48.9184	58.4312	0.291981
595	119.435	107.264	0.898093	48.8785	58.3854	0.292036
596	119.348	107.179	0.898035	48.8388	58.3399	0.292091
597	119.261	107.094	0.897977	48.7993	58.2945	0.292145
598	119.175	107.009	0.89792	48.76	58.2493	0.2922
599	119.089	106.925	0.897862	48.7208	58.2043	0.292254
600	119.003	106.841	0.897805	48.6818	58.1595	0.292309
601	118.917	106.758	0.897748	48.6429	58.1149	0.292363
602	118.832	106.675	0.897691	48.6043	58.0706	0.292417
603	118.748	106.592	0.897635	48.5659	58.0265	0.292471
604	118.664	106.51	0.897579	48.5277	57.9826	0.292524
605	118.58	106.429	0.897523	48.4897	57.939	0.292577
606	118.497	106.348	0.897468	48.452	57.8956	0.292629
607	118.415	106.267	0.897413	48.4144	57.8525	0.292682
608	118.333	106.187	0.897358	48.3771	57.8096	0.292734
609	118.251	106.107	0.897303	48.34	57.7669	0.292785
610	118.17	106.028	0.897249	48.303	57.7245	0.292836
611	118.089	105.949	0.897194	48.2663	57.6824	0.292887
612	118.009	105.87	0.897141	48.2299	57.6405	0.292937
613	117.929	105.792	0.897087	48.1936	57.5988	0.292988
614	117.849	105.715	0.897034	48.1575	57.5574	0.293037
615	117.771	105.638	0.896981	48.1217	57.5162	0.293086
616	117.692	105.561	0.896928	48.086	57.4753	0.293135
617	117.614	105.485	0.896875	48.0506	57.4346	0.293184
618	117.537	105.409	0.896823	48.0154	57.3941	0.293232
619	117.459	105.334	0.896771	47.9803	57.3538	0.29328
620	117.382	105.259	0.896719	47.9453	57.3136	0.293328
621	117.306	105.184	0.896668	47.9105	57.2736	0.293376
622	117.229	105.11	0.896616	47.8758	57.2337	0.293424
623	117.153	105.035	0.896565	47.8412	57.194	0.293473
624	117.077	104.961	0.896514	47.8068	57.1544	0.293521
625	117.001	104.887	0.896463	47.7725	57.1149	0.293569
626	116.926	104.814	0.896413	47.7383	57.0756	0.293618
627	116.851	104.741	0.896363	47.7042	57.0364	0.293666
628	116.776	104.668	0.896313	47.6703	56.9974	0.293715
629	116.701	104.595	0.896263	47.6365	56.9585	0.293764
630	116.627	104.522	0.896213	47.6028	56.9197	0.293812
631	116.553	104.45	0.896164	47.5692	56.8811	0.293861
632	116.479	104.378	0.896115	47.5358	56.8426	0.29391
633	116.405	104.307	0.896066	47.5025	56.8043	0.293958
634	116.332	104.235	0.896017	47.4693	56.7661	0.294007
635	116.259	104.164	0.895968	47.4363	56.728	0.294056
636	116.186	104.093	0.89592	47.4033	56.6901	0.294105
637	116.114	104.023	0.895872	47.3705	56.6523	0.294154
638	116.041	103.953	0.895824	47.3379	56.6147	0.294202
639	115.969	103.882	0.895776	47.3053	56.5772	0.294251
640	115.897	103.813	0.895729	47.2729	56.5398	0.2943
641	115.826	103.743	0.895682	47.2406	56.5026	0.294349
642	115.755	103.674	0.895635	47.2084	56.4655	0.294397
643	115.684	103.605	0.895588	47.1764	56.4286	0.294446
644	115.613	103.536	0.895541	47.1445	56.3918	0.294495
645	115.543	103.468	0.895495	47.1127	56.3551	0.294544
646	115.472	103.4	0.895449	47.081	56.3186	0.294592
647	115.403	103.332	0.895403	47.0495	56.2822	0.294641
648	115.333	103.264	0.895357	47.0181	56.246	0.294689
649	115.263	103.197	0.895311	46.9868	56.2099	0.294738
650	115.194	103.13	0.895266	46.9556	56.1739	0.294786
651	115.125	103.063	0.895221	46.9246	56.1381	0.294835
652	115.057	102.996	0.895176	46.8937	56.1025	0.294883
653	114.989	102.93	0.895131	46.863	56.0671	0.294931
654	114.921	102.864	0.895086	46.8325	56.0319	0.294978
655	114.854	102.799	0.895042	46.8021	55.9968	0.295025
656	114.787	102.734	0.894998	46.7719	55.9619	0.295072
657	114.72	102.669	0.894954	46.7418	55.9272	0.295119
658	114.654	102.605	0.89491	46.7119	55.8927	0.295165
659	114.588	102.541	0.894867	46.6821	55.8584	0.295211
660	114.522	102.477	0.894823	46.6526	55.8243	0.295257
661	114.457	102.413	0.89478	46.6231	55.7903	0.295302
662	114.392	102.35	0.894737	46.5939	55.7565	0.295348
663	114.327	102.288	0.894695	46.5648	55.7229	0.295392
664	114.263	102.225	0.894652	46.5358	55.6895	0.295437
665	114.199	102.163	0.89461	46.507	55.6563	0.295481
666	114.135	102.101	0.894568	46.4783	55.6232	0.295526
667	114.071	102.04	0.894526	46.4497	55.5901	0.29557
668	114.008	101.978	0.894484	46.4212	55.5572	0.295614
669	113.945	101.917	0.894442	46.3928	55.5244	0.295659
670	113.882	101.856	0.894401	46.3645	55.4917	0.295703
671	113.819	101.795	0.89436	46.3363	55.4591	0.295748
672	113.757	101.735	0.894319	46.3081	55.4267	0.295792
673	113.694	101.674	0.894278	46.2801	55.3943	0.295837
674	113.632	101.614	0.894237	46.2522	55.3621	0.295881
675	113.57	101.554	0.894196	46.2244	55.3299	0.295926
676	113.509	101.495	0.894156	46.1967	55.2979	0.295971
677	113.447	101.435	0.894116	46.1691	55.2659	0.296015
678	113.386	101.376	0.894076	46.1415	55.2341	0.29606
679	113.325	101.317	0.894036	46.1141	55.2024	0.296105
680	113.264	101.258	0.893996	46.0868	55.1708	0.296149
681	113.203	101.199	0.893957	46.0596	55.1393	0.296194
682	113.143	101.14	0.893917	46.0324	55.108	0.296239
683	113.083	101.082	0.893878	46.0054	55.0767	0.296283
684	113.023	101.024	0.893839	45.9785	55.0455	0.296328
685	112.963	100.966	0.8938	45.9516	55.0145	0.296373
686	112.903	100.908	0.893761	45.9249	54.9836	0.296417
687	112.844	100.851	0.893723	45.8983	54.9527	0.296462
688	112.784	100.794	0.893685	45.8717	54.922	0.296507
689	112.725	100.737	0.893646	45.8453	54.8914	0.296551
690	112.667	100.68	0.893608	45.8189	54.8609	0.296596
691	112.608	100.623	0.893571	45.7927	54.8305	0.29664
692	112.55	100.567	0.893533	45.7665	54.8002	0.296685
693	112.491	100.511	0.893495	45.7405	54.7701	0.296729
694	112.433	100.455	0.893458	45.7145	54.74	0.296774
695	112.376	100.399	0.893421	45.6887	54.7101	0.296818
696	112.318	100.343	0.893384	45.6629	54.6802	0.296863
697	112.261	100.288	0.893347	45.6372	54.6505	0.296907
698	112.204	100.233	0.89331	45.6117	54.6209	0.296951
699	112.147	100.178	0.893273	45.5862	54.5913	0.296995
700	112.09	100.123	0.893237	45.5608	54.5619	0.297039
701	112.033	100.068	0.893201	45.5356	54.5327	0.297083
702	111.977	100.014	0.893165	45.5104	54.5035	0.297127
703	111.921	99.9599	0.893129	45.4854	54.4745	0.297171
704	111.865	99.9062	0.893093	45.4605	54.4457	0.297214
705	111.81	99.8527	0.893058	45.4357	54.4169	0.297257
706	111.755	99.7994	0.893022	45.4111	54.3883	0.2973
707	111.7	99.7464	0.892987	45.3865	54.3599	0.297343
708	111.645	99.6937	0.892952	45.3621	54.3316	0.297386
709	111.591	99.6412	0.892917	45.3378	54.3034	0.297428
710	111.537	99.589	0.892882	45.3136	54.2754	0.29747
711	111.483	99.5371	0.892847	45.2896	54.2475	0.297512
712	111.429	99.4853	0.892813	45.2656	54.2197	0.297553
713	111.376	99.4338	0.892778	45.2417	54.1921	0.297595
714	111.322	99.3824	0.892744	45.2179	54.1645	0.297637
715	111.269	99.3312	0.89271	45.1942	54.1369	0.297678
716	111.216	99.2801	0.892676	45.1706	54.1095	0.29772
717	111.163	99.2291	0.892642	45.147	54.0821	0.297762
718	111.111	99.1783	0.892609	45.1235	54.0549	0.297804
719	111.058	99.1277	0.892575	45.1	54.0277	0.297846
720	111.006	99.0772	0.892542	45.0767	54.0005	0.297888
721	110.953	99.0269	0.892509	45.0534	53.9735	0.29793
722	110.901	98.9767	0.892476	45.0301	53.9465	0.297973
723	110.849	98.9267	0.892443	45.007	53.9197	0.298015
724	110.798	98.8768	0.89241	44.9839	53.8929	0.298057
725	110.746	98.827	0.892377	44.9609	53.8661	0.298099
726	110.694	98.7775	0.892345	44.938	53.8395	0.298142
727	110.643	98.728	0.892312	44.9151	53.8129	0.298184
728	110.592	98.6788	0.89228	44.8923	53.7864	0.298227
729	110.541	98.6296	0.892248	44.8696	53.76	0.298269
730	110.49	98.5806	0.892216	44.8469	53.7337	0.298312
731	110.439	98.5318	0.892184	44.8244	53.7075	0.298354
732	110.388	98.4831	0.892152	44.8019	53.6813	0.298397
733	110.338	98.4346	0.892121	44.7794	53.6552	0.298439
734	110.287	98.3862	0.892089	44.7571	53.6292	0.298482
735	110.237	98.338	0.892058	44.7348	53.6033	0.298525
736	110.187	98.2899	0.892027	44.7125	53.5774	0.298567
737	110.137	98.242	0.891996	44.6904	53.5516	0.29861
738	110.088	98.1942	0.891965	44.6683	53.5259	0.298653
739	110.038	98.1466	0.891934	44.6463	53.5003	0.298695
740	109.989	98.0991	0.891903	44.6243	53.4748	0.298738
741	109.939	98.0518	0.891873	44.6025	53.4493	0.298781
742	109.89	98.0047	0.891842	44.5807	53.424	0.298824
743	109.841	97.9576	0.891812	44.559	53.3987	0.298866
744	109.792	97.9108	0.891782	44.5373	53.3735	0.298909
745	109.744	97.864	0.891752	44.5157	53.3483	0.298952
746	109.695	97.8175	0.891722	44.4942	53.3233	0.298995
747	109.647	97.771	0.891692	44.4728	53.2983	0.299037
748	109.598	97.7248	0.891663	44.4514	53.2734	0.29908
749	109.55	97.6786	0.891633	44.4301	53.2486	0.299123
750	109.502	97.6327	0.891604	44.4088	53.2238	0.299166
751	109.455	97.5869	0.891574	44.3877	53.1992	0.299208
752	109.407	97.5413	0.891545	44.3667	53.1746	0.299251
753	109.36	97.4959	0.891516	44.3457	53.1502	0.299293
754	109.313	97.4508	0.891487	44.3249	53.1259	0.299335
755	109.266	97.4059	0.891459	44.3041	53.1018	0.299377
756	109.219	97.3612	0.89143	44.2835	53.0777	0.299418
757	109.173	97.3167	0.891402	44.2629	53.0537	0.299459
758	109.126	97.2724	0.891373	44.2425	53.0299	0.299501
759	109.08	97.2283	0.891345	44.2221	53.0062	0.299541
760	109.035	97.1845	0.891317	44.2019	52.9826	0.299582
761	108.989	97.1407	0.891289	44.1817	52.959	0.299623
762	108.944	97.0971	0.891261	44.1615	52.9356	0.299664
763	108.898	97.0536	0.891233	44.1415	52.9122	0.299705
764	108.853	97.0103	0.891205	44.1215	52.8888	0.299745
765	108.808	96.9671	0.891178	44.1015	52.8656	0.299786
766	108.763	96.924	0.89115	44.0816	52.8424	0.299827
767	108.718	96.8811	0.891123	44.0618	52.8193	0.299868
768	108.673	96.8383	0.891096	44.0421	52.7962	0.299909
769	108.629	96.7956	0.891069	44.0224	52.7732	0.299949
770	108.584	96.7531	0.891042	44.0027	52.7503	0.29999
771	108.54	96.7107	0.891015	43.9832	52.7275	0.300031
772	108.496	96.6684	0.890988	43.9637	52.7048	0.300072
773	108.452	96.6263	0.890962	43.9442	52.6821	0.300113
774	108.408	96.5843	0.890935	43.9249	52.6594	0.300153
775	108.364	96.5425	0.890909	43.9056	52.6369	0.300194
776	108.32	96.5007	0.890882	43.8863	52.6144	0.300235
777	108.277	96.4591	0.890856	43.8671	52.592	0.300276
778	108.234	96.4177	0.89083	43.848	52.5697	0.300316
779	108.19	96.3764	0.890804	43.829	52.5474	0.300357
780	108.147	96.3352	0.890778	43.81	52.5252	0.300398
781	108.104	96.2941	0.890753	43.791	52.5031	0.300438
782	108.061	96.2532	0.890727	43.7722	52.4811	0.300479
783	108.019	96.2124	0.890701	43.7534	52.4591	0.30052
784	107.976	96.1718	0.890676	43.7346	52.4372	0.30056
785	107.934	96.1313	0.890651	43.7159	52.4154	0.300601
786	107.891	96.0909	0.890625	43.6973	52.3936	0.300641
787	107.849	96.0507	0.8906	43.6788	52.3719	0.300682
788	107.807	96.0105	0.890575	43.6603	52.3503	0.300722
789	107.765	95.9706	0.89055	43.6418	52.3287	0.300763
790	107.724	95.9307	0.890526	43.6235	52.3073	0.300803
791	107.682	95.891	0.890501	43.6052	52.2858	0.300844
792	107.641	95.8514	0.890476	43.5869	52.2645	0.300884
793	107.599	95.812	0.890452	43.5688	52.2432	0.300924
794	107.558	95.7727	0.890428	43.5506	52.2221	0.300964
795	107.517	95.7335	0.890403	43.5326	52.2009	0.301005
796	107.476	95.6945	0.890379	43.5146	52.1799	0.301045
797	107.435	95.6556	0.890355	43.4967	52.1589	0.301085
798	107.395	95.6168	0.890331	43.4788	52.138	0.301125
799	107.354	95.5782	0.890307	43.461	52.1172	0.301165
800	107.314	95.5397	0.890283	43.4433	52.0964	0.301205
801	107.274	95.5013	0.89026	43.4256	52.0757	0.301245
802	107.233	95.4631	0.890236	43.408	52.0551	0.301284
803	107.194	95.4251	0.890213	43.3905	52.0346	0.301324
804	107.154	95.3873	0.89019	43.3731	52.0142	0.301363
805	107.114	95.3496	0.890166	43.3557	51.9939	0.301402
806	107.075	95.3122	0.890143	43.3385	51.9737	0.301441
807	107.036	95.2748	0.89012	43.3213	51.9536	0.30148
808	106.997	95.2377	0.890097	43.3042	51.9335	0.301518
809	106.958	95.2006	0.890074	43.2871	51.9136	0.301557
810	106.919	95.1637	0.890052	43.2701	51.8936	0.301595
811	106.881	95.1269	0.890029	43.2531	51.8738	0.301634
812	106.842	95.0902	0.890006	43.2362	51.854	0.301672
813	106.804	95.0537	0.889984	43.2194	51.8343	0.301711
814	106.766	95.0172	0.889961	43.2026	51.8146	0.301749
815	106.727	94.9809	0.889939	43.1859	51.795	0.301788
816	106.689	94.9447	0.889917	43.1692	51.7755	0.301826
817	106.651	94.9086	0.889895	43.1526	51.756	0.301864
818	106.614	94.8726	0.889873	43.136	51.7366	0.301903
819	106.576	94.8368	0.889851	43.1195	51.7173	0.301941
820	106.538	94.8011	0.889829	43.1031	51.698	0.301979
821	106.501	94.7654	0.889807	43.0867	51.6788	0.302017
822	106.464	94.73	0.889786	43.0704	51.6596	0.302055
823	106.427	94.6946	0.889764	43.0541	51.6405	0.302093
824	106.39	94.6593	0.889743	43.0378	51.6215	0.302131
825	106.353	94.6242	0.889722	43.0217	51.6025	0.302169
826	106.316	94.5892	0.8897	43.0056	51.5836	0.302207
827	106.279	94.5543	0.889679	42.9895	51.5648	0.302245
828	106.243	94.5195	0.889658	42.9735	51.546	0.302283
829	106.206	94.4848	0.889637	42.9575	51.5273	0.302321
830	106.17	94.4503	0.889616	42.9417	51.5086	0.302359
831	106.134	94.4159	0.889595	42.9258	51.4901	0.302396
832	106.097	94.3816	0.889575	42.91	51.4715	0.302434
833	106.061	94.3474	0.889554	42.8943	51.4531	0.302472
834	106.026	94.3133	0.889533	42.8786	51.4347	0.302509
835	105.99	94.2794	0.889513	42.863	51.4164	0.302547
836	105.954	94.2455	0.889493	42.8474	51.3981	0.302584
837	105.919	94.2118	0.889472	42.8319	51.3799	0.302621
838	105.883	94.1782	0.889452	42.8165	51.3617	0.302658
839	105.848	94.1448	0.889432	42.8011	51.3437	0.302696
840	105.813	94.1114	0.889412	42.7857	51.3257	0.302733
841	105.778	94.0782	0.889392	42.7705	51.3077	0.30277
842	105.743	94.0451	0.889372	42.7552	51.2898	0.302807
843	105.708	94.012	0.889352	42.7401	51.272	0.302844
844	105.674	93.9792	0.889333	42.7249	51.2542	0.302881
845	105.639	93.9464	0.889313	42.7099	51.2365	0.302917
846	105.605	93.9138	0.889293	42.6949	51.2189	0.302954
847	105.571	93.8812	0.889274	42.6799	51.2013	0.302991
848	105.536	93.8488	0.889255	42.665	51.1838	0.303027
849	105.502	93.8165	0.889235	42.6501	51.1664	0.303064
850	105.469	93.7844	0.889216	42.6354	51.149	0.3031
851	105.435	93.7523	0.889197	42.6206	51.1317	0.303136
852	105.401	93.7204	0.889178	42.606	51.1145	0.303172
853	105.368	93.6887	0.889159	42.5914	51.0973	0.303208
854	105.335	93.6572	0.88914	42.5769	51.0803	0.303244
855	105.301	93.6258	0.889121	42.5624	51.0633	0.303279
856	105.268	93.5945	0.889103	42.5481	51.0464	0.303314
857	105.236	93.5633	0.889084	42.5337	51.0296	0.303349
858	105.203	93.5323	0.889066	42.5194	51.0128	0.303385
859	105.17	93.5013	0.889047	42.5052	50.9961	0.30342
860	105.138	93.4704	0.889029	42.491	50.9794	0.303455
861	105.105	93.4396	0.88901	42.4768	50.9627	0.30349
862	105.073	93.4089	0.888992	42.4627	50.9461	0.303525
863	105.04	93.3782	0.888974	42.4486	50.9296	0.30356
864	105.008	93.3477	0.888956	42.4346	50.9131	0.303596
865	104.976	93.3173	0.888938	42.4206	50.8966	0.303631
866	104.944	93.2869	0.88892	42.4067	50.8802	0.303666
867	104.912	93.2566	0.888902	42.3928	50.8639	0.303701
868	104.88	93.2265	0.888884	42.3789	50.8476	0.303736
869	104.849	93.1964	0.888867	42.3651	50.8313	0.303771
870	104.817	93.1664	0.888849	42.3513	50.8151	0.303806
871	104.785	93.1365	0.888831	42.3376	50.7989	0.303841
872	104.754	93.1067	0.888814	42.3239	50.7828	0.303876
873	104.722	93.077	0.888797	42.3102	50.7667	0.303912
874	104.691	93.0473	0.888779	42.2966	50.7507	0.303947
875	104.66	93.0178	0.888762	42.283	50.7347	0.303982
876	104.629	92.9883	0.888745	42.2695	50.7188	0.304017
877	104.598	92.959	0.888728	42.256	50.7029	0.304051
878	104.567	92.9297	0.888711	42.2426	50.6871	0.304086
879	104.536	92.9005	0.888694	42.2292	50.6713	0.304121
880	104.505	92.8714	0.888677	42.2158	50.6556	0.304156
881	104.475	92.8424	0.88866	42.2025	50.6399	0.304191
882	104.444	92.8135	0.888643	42.1892	50.6243	0.304226
883	104.414	92.7847	0.888626	42.176	50.6087	0.304261
884	104.383	92.756	0.88861	42.1628	50.5931	0.304295
885	104.353	92.7273	0.888593	42.1497	50.5776	0.30433
886	104.323	92.6988	0.888577	42.1366	50.5622	0.304365
887	104.293	92.6703	0.88856	42.1235	50.5468	0.3044
888	104.263	92.6419	0.888544	42.1105	50.5314	0.304434
889	104.233	92.6136	0.888528	42.0975	50.5161	0.304469
890	104.203	92.5855	0.888512	42.0846	50.5009	0.304503
891	104.173	92.5574	0.888496	42.0717	50.4857	0.304538
892	104.143	92.5293	0.888479	42.0588	50.4705	0.304572
893	104.114	92.5014	0.888463	42.046	50.4554	0.304607
894	104.084	92.4736	0.888448	42.0332	50.4404	0.304641
895	104.055	92.4458	0.888432	42.0205	50.4253	0.304676
896	104.026	92.4182	0.888416	42.0078	50.4104	0.30471
897	103.997	92.3906	0.8884	41.9952	50.3955	0.304744
898	103.968	92.3631	0.888385	41.9826	50.3806	0.304779
899	103.939	92.3357	0.888369	41.97	50.3658	0.304813
900	103.91	92.3085	0.888354	41.9575	50.351	0.304847
901	103.881	92.2813	0.888338	41.945	50.3363	0.304881
902	103.852	92.2542	0.888323	41.9326	50.3216	0.304915
903	103.824	92.2273	0.888307	41.9202	50.307	0.304949
904	103.795	92.2005	0.888292	41.9079	50.2925	0.304982
905	103.767	92.1738	0.888277	41.8957	50.2781	0.305015
906	103.739	92.1472	0.888262	41.8835	50.2637	0.305049
907	103.711	92.1207	0.888247	41.8713	50.2493	0.305082
908	103.683	92.0942	0.888232	41.8592	50.235	0.305115
909	103.655	92.0679	0.888217	41.8471	50.2208	0.305149
910	103.627	92.0416	0.888202	41.8351	50.2066	0.305182
911	103.599	92.0155	0.888187	41.8231	50.1924	0.305215
912	103.572	91.9894	0.888173	41.8111	50.1783	0.305248
913	103.544	91.9634	0.888158	41.7992	50.1642	0.305281
914	103.517	91.9375	0.888143	41.7873	50.1502	0.305314
915	103.489	91.9117	0.888129	41.7755	50.1362	0.305347
916	103.462	91.886	0.888114	41.7637	50.1223	0.30538
917	103.435	91.8604	0.8881	41.752	50.1084	0.305412
918	103.408	91.8348	0.888085	41.7403	50.0946	0.305445
919	103.381	91.8094	0.888071	41.7286	50.0808	0.305478
920	103.354	91.784	0.888057	41.717	50.0671	0.30551
921	103.327	91.7588	0.888043	41.7054	50.0534	0.305543
922	103.3	91.7336	0.888029	41.6938	50.0397	0.305575
923	103.274	91.7085	0.888014	41.6823	50.0261	0.305607
924	103.247	91.6835	0.888	41.6709	50.0126	0.30564
925	103.221	91.6586	0.887987	41.6594	49.9991	0.305672
926	103.194	91.6337	0.887973	41.6481	49.9857	0.305704
927	103.168	91.609	0.887959	41.6367	49.9723	0.305736
928	103.142	91.5843	0.887945	41.6254	49.9589	0.305768
929	103.116	91.5598	0.887931	41.6142	49.9456	0.3058
930	103.09	91.5353	0.887918	41.603	49.9323	0.305832
931	103.064	91.5109	0.887904	41.5918	49.9191	0.305864
932	103.038	91.4866	0.887891	41.5806	49.906	0.305896
933	103.012	91.4624	0.887877	41.5696	49.8929	0.305927
934	102.987	91.4383	0.887864	41.5585	49.8798	0.305959
935	102.961	91.4143	0.88785	41.5475	49.8668	0.30599
936	102.936	91.3903	0.887837	41.5365	49.8538	0.306022
937	102.911	91.3665	0.887824	41.5256	49.8409	0.306053
938	102.885	91.3427	0.887811	41.5147	49.828	0.306085
939	102.86	91.319	0.887797	41.5038	49.8152	0.306116
940	102.835	91.2954	0.887784	41.493	49.8024	0.306147
941	102.81	91.2719	0.887771	41.4823	49.7897	0.306178
942	102.785	91.2485	0.887758	41.4715	49.777	0.306209
943	102.761	91.2252	0.887746	41.4609	49.7643	0.30624
944	102.736	91.202	0.887733	41.4502	49.7517	0.30627
945	102.711	91.1788	0.88772	41.4396	49.7392	0.306301
946	102.687	91.1557	0.887707	41.429	49.7267	0.306332
947	102.662	91.1328	0.887694	41.4185	49.7143	0.306362
948	102.638	91.1099	0.887682	41.408	49.7019	0.306393
949	102.614	91.0871	0.887669	41.3976	49.6895	0.306423
950	102.59	91.0644	0.887657	41.3872	49.6772	0.306453
951	102.566	91.0418	0.887644	41.3768	49.6649	0.306483
952	102.542	91.0193	0.887632	41.3665	49.6527	0.306513
953	102.518	90.9969	0.88762	41.3563	49.6406	0.306543
954	102.494	90.9745	0.887607	41.346	49.6285	0.306573
955	102.47	90.9522	0.887595	41.3358	49.6164	0.306603
956	102.447	90.93	0.887583	41.3256	49.6044	0.306633
957	102.423	90.9078	0.887571	41.3155	49.5923	0.306663
958	102.4	90.8857	0.887559	41.3054	49.5804	0.306693
959	102.376	90.8637	0.887547	41.2953	49.5684	0.306723
960	102.353	90.8417	0.887535	41.2852	49.5565	0.306752
961	102.33	90.8198	0.887523	41.2752	49.5446	0.306782
962	102.306	90.7979	0.887511	41.2652	49.5328	0.306812
963	102.283	90.7761	0.887499	41.2552	49.5209	0.306842
964	102.26	90.7544	0.887487	41.2452	49.5092	0.306872
965	102.237	90.7327	0.887475	41.2353	49.4974	0.306902
966	102.214	90.7111	0.887464	41.2254	49.4857	0.306931
967	102.191	90.6895	0.887452	41.2156	49.474	0.306961
968	102.168	90.668	0.887441	41.2057	49.4623	0.306991
969	102.145	90.6466	0.887429	41.1959	49.4507	0.307021
970	102.122	90.6252	0.887418	41.1861	49.4391	0.307051
971	102.1	90.6039	0.887406	41.1764	49.4275	0.30708
972	102.077	90.5827	0.887395	41.1666	49.416	0.30711
973	102.054	90.5615	0.887383	41.1569	49.4045	0.30714
974	102.032	90.5403	0.887372	41.1473	49.3931	0.30717
975	102.01	90.5193	0.887361	41.1376	49.3816	0.307199
976	101.987	90.4982	0.88735	41.128	49.3702	0.307229
977	101.965	90.4773	0.887339	41.1184	49.3589	0.307259
978	101.943	90.4564	0.887328	41.1089	49.3475	0.307288
979	101.92	90.4356	0.887317	41.0994	49.3362	0.307318
980	101.898	90.4148	0.887306	41.0899	49.3249	0.307348
981	101.876	90.3941	0.887295	41.0804	49.3137	0.307377
982	101.854	90.3734	0.887284	41.0709	49.3025	0.307407
983	101.832	90.3529	0.887273	41.0615	49.2913	0.307436
984	101.81	90.3323	0.887262	41.0521	49.2802	0.307466
985	101.788	90.3119	0.887252	41.0428	49.2691	0.307496
986	101.767	90.2914	0.887241	41.0335	49.258	0.307525
987	101.745	90.2711	0.88723	41.0242	49.2469	0.307555
988	101.723	90.2508	0.88722	41.0149	49.2359	0.307584
989	101.702	90.2306	0.887209	41.0056	49.225	0.307613
990	101.68	90.2104	0.887199	40.9964	49.214	0.307643
991	101.659	90.1903	0.887188	40.9872	49.2031	0.307672
992	101.637	90.1703	0.887178	40.9781	49.1922	0.307702
993	101.616	90.1503	0.887168	40.9689	49.1813	0.307731
994	101.595	90.1303	0.887157	40.9598	49.1705	0.30776
995	101.573	90.1105	0.887147	40.9507	49.1597	0.30779
996	101.552	90.0907	0.887137	40.9417	49.149	0.307819
997	101.531	90.0709	0.887127	40.9327	49.1383	0.307848
998	101.51	90.0512	0.887117	40.9237	49.1276	0.307877
999	101.489	90.0316	0.887107	40.9147	49.1169	0.307906
1000	101.468	90.012	0.887097	40.9058	49.1063	0.307936
