#Total-Energy(MeV)  Deposited-Energy(MeV)  Light-Output(Gamma-MeV)  Ratio  Nf(Gamma-Mev)  Ns(Gamma-MeV)  Ratio(delta electrons)
1	1	1.3517	1.3517	1.04821	0.303489	0
2	2	2.81605	1.40803	2.08225	0.733801	0
3	3	4.29552	1.43184	3.06086	1.23466	0
4	4	5.7673	1.44182	4.00476	1.76254	0
5	5	7.24645	1.44929	4.91853	2.32792	0
6	6	8.66162	1.4436	5.77371	2.88791	0.00149734
7	7	10.0776	1.43965	6.60715	3.47043	0.00622778
8	8	11.4933	1.43666	7.4214	4.07189	0.012329
9	9	12.8339	1.42599	8.18503	4.64889	0.0188986
10	10	14.2002	1.42002	8.94728	5.25287	0.0255008
11	11	15.5292	1.41174	9.68179	5.84737	0.0319003
12	12	16.8343	1.40286	10.3932	6.44112	0.0380231
13	13	18.1466	1.39589	11.106	7.04061	0.0438942
14	14	19.4353	1.38824	11.7984	7.63696	0.0494351
15	15	20.7023	1.38016	12.4716	8.23071	0.0546897
16	16	21.9775	1.3736	13.1497	8.82787	0.0596679
17	17	23.2298	1.36646	13.8095	9.42039	0.0643675
18	18	24.468	1.35934	14.4555	10.0126	0.0688311
19	19	25.7016	1.35272	15.1011	10.6005	0.0730551
20	20	26.9225	1.34613	15.7337	11.1888	0.0770669
21	21	28.1675	1.34131	16.377	11.7905	0.0808686
22	22	29.3792	1.33542	17.001	12.3782	0.0844591
23	23	30.5576	1.32859	17.6079	12.9497	0.0878729
24	24	31.7671	1.32363	18.2266	13.5405	0.0911368
25	25	32.9474	1.3179	18.8288	14.1186	0.0942791
26	26	34.1313	1.31274	19.4259	14.7054	0.0972906
27	27	35.3086	1.30772	20.0255	15.2831	0.100174
28	28	36.4862	1.30308	20.6218	15.8644	0.102944
29	29	37.6547	1.29844	21.2091	16.4456	0.105596
30	30	38.8085	1.29362	21.7917	17.0169	0.108151
31	31	39.9542	1.28884	22.3661	17.5881	0.110601
32	32	41.1185	1.28495	22.9485	18.17	0.112952
33	33	42.2306	1.27971	23.506	18.7245	0.115215
34	34	43.3694	1.27557	24.0738	19.2956	0.1174
35	35	44.5336	1.27239	24.654	19.8796	0.119519
36	36	45.6687	1.26857	25.2176	20.4511	0.121567
37	37	46.7699	1.26405	25.7666	21.0033	0.123543
38	38	47.8996	1.26052	26.3266	21.5731	0.125451
39	39	49.0053	1.25655	26.8711	22.1342	0.1273
40	40	50.1247	1.25312	27.4264	22.6983	0.1291
41	41	51.2379	1.24971	27.9732	23.2648	0.130845
42	42	52.3422	1.24624	28.5191	23.8232	0.132535
43	43	53.4627	1.24332	29.0696	24.3932	0.134172
44	44	54.5483	1.23973	29.6033	24.9451	0.135768
45	45	55.66	1.23689	30.1481	25.512	0.137321
46	46	56.7455	1.2336	30.6815	26.0639	0.138834
47	47	57.8418	1.23068	31.2162	26.6256	0.140301
48	48	58.9294	1.2277	31.7502	27.1792	0.14173
49	49	60.0191	1.22488	32.2803	27.7388	0.143121
50	50	61.1029	1.22206	32.8115	28.2914	0.144483
51	51	62.1821	1.21926	33.335	28.8471	0.145809
52	52	63.2641	1.21662	33.8643	29.3998	0.147102
53	53	64.3464	1.21408	34.3887	29.9577	0.14836
54	54	65.4117	1.21133	34.9074	30.5043	0.149592
55	55	66.4997	1.20909	35.4329	31.0669	0.150796
56	56	67.556	1.20636	35.9467	31.6093	0.151975
57	57	68.6504	1.20439	36.4786	32.1718	0.153124
58	58	69.7209	1.20209	36.996	32.725	0.154246
59	59	70.7575	1.19928	37.4999	33.2577	0.155347
60	60	71.8222	1.19704	38.0147	33.8074	0.156424
61	61	72.8836	1.19481	38.5226	34.361	0.157478
62	62	73.9497	1.19274	39.0384	34.9113	0.15851
63	63	74.9872	1.19027	39.5418	35.4454	0.159521
64	64	76.037	1.18808	40.0462	35.9908	0.16051
65	65	77.1055	1.18624	40.563	36.5425	0.161483
66	66	78.1425	1.18398	41.0616	37.0809	0.162435
67	67	79.2047	1.18216	41.5729	37.6318	0.163369
68	68	80.2329	1.1799	42.0653	38.1675	0.164283
69	69	81.2819	1.178	42.5706	38.7113	0.165181
70	70	82.3419	1.17631	43.0763	39.2656	0.166063
71	71	83.3796	1.17436	43.5736	39.806	0.16693
72	72	84.4074	1.17233	44.0702	40.3372	0.167781
73	73	85.4397	1.17041	44.5634	40.8763	0.168615
74	74	86.4936	1.16883	45.0696	41.424	0.169435
75	75	87.5137	1.16685	45.5571	41.9566	0.170243
76	76	88.5586	1.16524	46.0577	42.5009	0.171036
77	77	89.5795	1.16337	46.5427	43.0368	0.171815
78	78	90.6084	1.16165	47.0343	43.5741	0.17258
79	79	91.6556	1.1602	47.5371	44.1185	0.173334
80	80	92.6762	1.15845	48.0244	44.6518	0.174076
81	81	93.7214	1.15705	48.5214	45.2001	0.174806
82	82	94.7288	1.15523	49.0033	45.7256	0.175524
83	83	95.7604	1.15374	49.4945	46.2659	0.17623
84	84	96.7623	1.15193	49.9692	46.7931	0.176924
85	85	97.7857	1.15042	50.4563	47.3294	0.177609
86	86	98.8159	1.14902	50.9495	47.8664	0.178285
87	87	99.8221	1.14738	51.4264	48.3957	0.178948
88	88	100.848	1.146	51.9156	48.9322	0.179602
89	89	101.876	1.14468	52.4034	49.473	0.180245
90	90	102.894	1.14327	52.8871	50.0069	0.18088
91	91	103.891	1.14166	53.3608	50.5301	0.181508
92	92	104.898	1.1402	53.8364	51.0618	0.182124
93	93	105.913	1.13885	54.3199	51.5931	0.182732
94	94	106.945	1.13772	54.8071	52.1382	0.183331
95	95	107.959	1.13641	55.2881	52.6708	0.183923
96	96	108.939	1.13478	55.7534	53.1856	0.184508
97	97	109.962	1.13363	56.2379	53.7244	0.185083
98	98	110.953	1.13217	56.7058	54.247	0.185651
99	99	111.984	1.13115	57.1957	54.788	0.186211
100	100	112.984	1.12984	57.6694	55.3146	0.186765
101	101	113.989	1.12861	58.1419	55.8474	0.18731
102	102	114.983	1.12729	58.615	56.3681	0.187845
103	103	115.98	1.12602	59.0861	56.8939	0.188371
104	104	116.997	1.12497	59.5658	57.4309	0.188888
105	105	117.972	1.12354	60.0255	57.9465	0.189397
106	106	118.971	1.12237	60.4961	58.475	0.189897
107	107	119.977	1.12128	60.9735	59.0034	0.190391
108	108	120.991	1.12029	61.4518	59.5394	0.190876
109	109	121.989	1.11917	61.9201	60.0691	0.191355
110	110	122.96	1.11782	62.3782	60.5818	0.191828
111	111	123.987	1.117	62.8634	61.1234	0.192294
112	112	124.98	1.11589	63.3317	61.6482	0.192755
113	113	125.947	1.11458	63.7857	62.1613	0.19321
114	114	126.968	1.11375	64.2679	62.7	0.19366
115	115	127.959	1.11269	64.7343	63.2252	0.194106
116	116	128.921	1.11139	65.1882	63.7331	0.194547
117	117	129.91	1.11035	65.6516	64.2589	0.194984
118	118	130.902	1.10934	66.1203	64.7816	0.195417
119	119	131.907	1.10846	66.5901	65.3171	0.195846
120	120	132.899	1.10749	67.0569	65.8419	0.196272
121	121	133.863	1.1063	67.5117	66.3509	0.196695
122	122	134.855	1.10537	67.9765	66.8784	0.197115
123	123	135.833	1.10433	68.4369	67.3959	0.197532
124	124	136.849	1.10362	68.9138	67.9356	0.197947
125	125	137.829	1.10263	69.3732	68.4556	0.19836
126	126	138.783	1.10146	69.8221	68.9613	0.198769
127	127	139.781	1.10064	70.2877	69.4938	0.199171
128	128	140.769	1.09976	70.7517	70.017	0.199569
129	129	141.727	1.09866	71.2018	70.5249	0.199962
130	130	142.737	1.09798	71.6769	71.0605	0.200349
131	131	143.71	1.09703	72.1339	71.5765	0.200731
132	132	144.701	1.09622	72.5962	72.1044	0.201108
133	133	145.649	1.0951	73.0419	72.6067	0.201482
134	134	146.622	1.09419	73.4957	73.1263	0.201851
135	135	147.601	1.09334	73.9561	73.6452	0.202216
136	136	148.606	1.09269	74.4262	74.1796	0.202577
137	137	149.569	1.09174	74.8781	74.6904	0.202935
138	138	150.551	1.09095	75.3373	75.2133	0.203289
139	139	151.506	1.08997	75.7816	75.7241	0.20364
140	140	152.507	1.08933	76.2508	76.256	0.203987
141	141	153.472	1.08845	76.7038	76.7683	0.204332
142	142	154.431	1.08754	77.1529	77.2784	0.204675
143	143	155.394	1.08667	77.6008	77.7929	0.205014
144	144	156.371	1.08591	78.0594	78.312	0.205351
145	145	157.368	1.0853	78.5236	78.8448	0.205685
146	146	158.334	1.08448	78.9759	79.3581	0.206018
147	147	159.297	1.08366	79.4232	79.8742	0.206348
148	148	160.258	1.08283	79.8755	80.3828	0.206677
149	149	161.222	1.08203	80.3254	80.8969	0.207004
150	150	162.209	1.0814	80.7853	81.424	0.207328
151	151	163.153	1.08048	81.226	81.9271	0.207651
152	152	164.116	1.07971	81.674	82.4419	0.20797
153	153	165.09	1.07902	82.1303	82.9599	0.208285
154	154	166.081	1.07845	82.5904	83.4903	0.208596
155	155	167.034	1.07764	83.0367	83.997	0.208905
156	156	168	1.07692	83.487	84.5127	0.20921
157	157	168.963	1.0762	83.9329	85.0305	0.209512
158	158	169.921	1.07545	84.383	85.5383	0.209812
159	159	170.877	1.0747	84.8282	86.049	0.210108
160	160	171.852	1.07407	85.2823	86.5692	0.210402
161	161	172.807	1.07334	85.7252	87.082	0.210693
162	162	173.79	1.07278	86.1837	87.6062	0.210981
163	163	174.75	1.07209	86.6303	88.1198	0.211268
164	164	175.68	1.07122	87.0636	88.6166	0.211552
165	165	176.663	1.07069	87.5198	89.1434	0.211834
166	166	177.628	1.07005	87.9696	89.6584	0.212114
167	167	178.56	1.06922	88.4032	90.1568	0.212392
168	168	179.55	1.06875	88.8653	90.6849	0.212668
169	169	180.504	1.06807	89.3097	91.1943	0.212943
170	170	181.457	1.06739	89.7498	91.7068	0.213215
171	171	182.406	1.0667	90.1949	92.211	0.213487
172	172	183.355	1.06602	90.6357	92.7196	0.213756
173	173	184.324	1.06546	91.0869	93.2375	0.214024
174	174	185.273	1.06478	91.5249	93.7477	0.214291
175	175	186.242	1.06424	91.9747	94.2672	0.214556
176	176	187.184	1.06354	92.4131	94.7707	0.21482
177	177	188.142	1.06295	92.8609	95.2809	0.215082
178	178	189.087	1.06229	93.2968	95.7901	0.21534
179	179	190.051	1.06174	93.7452	96.3055	0.215597
180	180	190.992	1.06107	94.1827	96.8097	0.215851
181	181	191.97	1.06061	94.6385	97.3317	0.216103
182	182	192.905	1.05992	95.0724	97.8324	0.216353
183	183	193.856	1.05932	95.5136	98.3422	0.2166
184	184	194.823	1.05882	95.9631	98.8598	0.216846
185	185	195.762	1.05817	96.3959	99.3658	0.21709
186	186	196.74	1.05774	96.8511	99.8893	0.217331
187	187	197.681	1.05712	97.2861	100.395	0.217572
188	188	198.609	1.05643	97.7182	100.891	0.21781
189	189	199.594	1.05605	98.1749	101.419	0.218047
190	190	200.538	1.05546	98.6134	101.924	0.218283
191	191	201.488	1.05491	99.0525	102.435	0.218516
192	192	202.412	1.05423	99.4826	102.929	0.218749
193	193	203.366	1.05371	99.9233	103.443	0.21898
194	194	204.313	1.05316	100.362	103.951	0.21921
195	195	205.26	1.05261	100.803	104.457	0.219438
196	196	206.214	1.05211	101.241	104.973	0.219665
197	197	207.183	1.05169	101.693	105.491	0.219891
198	198	208.111	1.05106	102.123	105.988	0.220116
199	199	209.055	1.05053	102.562	106.493	0.220341
200	200	209.989	1.04994	102.993	106.996	0.220564
201	201	210.936	1.04943	103.432	107.504	0.220785
202	202	211.898	1.049	103.878	108.02	0.221005
203	203	212.83	1.04842	104.307	108.523	0.221223
204	204	213.804	1.04806	104.759	109.045	0.221439
205	205	214.749	1.04755	105.196	109.553	0.221654
206	206	215.666	1.04692	105.62	110.046	0.221867
207	207	216.62	1.04647	106.064	110.556	0.222079
208	208	217.547	1.0459	106.492	111.055	0.222289
209	209	218.489	1.0454	106.927	111.562	0.222497
210	210	219.444	1.04497	107.371	112.073	0.222704
211	211	220.394	1.04452	107.806	112.588	0.222909
212	212	221.341	1.04406	108.248	113.093	0.223114
213	213	222.281	1.04357	108.682	113.598	0.223317
214	214	223.236	1.04316	109.122	114.113	0.223519
215	215	224.145	1.04254	109.544	114.601	0.22372
216	216	225.093	1.0421	109.98	115.113	0.223919
217	217	226.035	1.04164	110.416	115.619	0.224118
218	218	226.967	1.04113	110.848	116.119	0.224315
219	219	227.937	1.04081	111.296	116.641	0.224511
220	220	228.864	1.04029	111.726	117.138	0.224707
221	221	229.806	1.03985	112.161	117.645	0.224901
222	222	230.744	1.03939	112.591	118.153	0.225095
223	223	231.676	1.0389	113.025	118.651	0.225288
224	224	232.605	1.03841	113.453	119.151	0.225479
225	225	233.549	1.038	113.89	119.659	0.225671
226	226	234.509	1.03765	114.332	120.177	0.22586
227	227	235.42	1.03709	114.754	120.666	0.226049
228	228	236.353	1.03664	115.182	121.171	0.226236
229	229	237.29	1.0362	115.615	121.675	0.226422
230	230	238.234	1.0358	116.053	122.181	0.226607
231	231	239.197	1.03549	116.496	122.701	0.22679
232	232	240.116	1.03498	116.922	123.194	0.226973
233	233	241.046	1.03453	117.351	123.695	0.227154
234	234	241.991	1.03415	117.787	124.204	0.227334
235	235	242.925	1.03372	118.214	124.711	0.227512
236	236	243.859	1.0333	118.649	125.209	0.22769
237	237	244.783	1.03284	119.075	125.708	0.227867
238	238	245.72	1.03244	119.508	126.212	0.228043
239	239	246.673	1.0321	119.947	126.726	0.228218
240	240	247.582	1.03159	120.364	127.218	0.228391
241	241	248.533	1.03126	120.801	127.732	0.228564
242	242	249.47	1.03087	121.234	128.236	0.228736
243	243	250.384	1.03039	121.656	128.728	0.228908
244	244	251.337	1.03007	122.098	129.239	0.229078
245	245	252.252	1.0296	122.519	129.733	0.229248
246	246	253.183	1.0292	122.947	130.236	0.229417
247	247	254.124	1.02884	123.383	130.741	0.229585
248	248	255.082	1.02856	123.822	131.26	0.229752
249	249	255.993	1.02809	124.245	131.749	0.229919
250	250	256.919	1.02768	124.671	132.248	0.230085
251	251	257.86	1.02733	125.104	132.755	0.230251
252	252	258.805	1.027	125.538	133.267	0.230415
253	253	259.714	1.02654	125.959	133.755	0.230578
254	254	260.636	1.02613	126.381	134.256	0.23074
255	255	261.569	1.02576	126.81	134.759	0.230901
256	256	262.499	1.02539	127.24	135.259	0.231062
257	257	263.452	1.0251	127.68	135.772	0.231221
258	258	264.358	1.02464	128.096	136.262	0.231379
259	259	265.301	1.02433	128.53	136.771	0.231537
260	260	266.23	1.02396	128.958	137.273	0.231693
261	261	267.147	1.02355	129.38	137.767	0.231849
262	262	268.1	1.02328	129.82	138.28	0.232005
263	263	269.007	1.02284	130.237	138.77	0.232159
264	264	269.933	1.02247	130.662	139.271	0.232312
265	265	270.862	1.02212	131.09	139.772	0.232465
266	266	271.806	1.02183	131.526	140.279	0.232617
267	267	272.73	1.02146	131.949	140.781	0.232769
268	268	273.676	1.02118	132.386	141.29	0.232919
269	269	274.6	1.02082	132.811	141.788	0.23307
270	270	275.532	1.02049	133.239	142.293	0.233219
271	271	276.428	1.02003	133.651	142.777	0.233368
272	272	277.387	1.01981	134.093	143.295	0.233516
273	273	278.307	1.01944	134.517	143.79	0.233664
274	274	279.237	1.01911	134.944	144.293	0.233811
275	275	280.148	1.01872	135.362	144.786	0.233958
276	276	281.075	1.01839	135.791	145.284	0.234104
277	277	281.986	1.018	136.207	145.779	0.234249
277.1	277.1	282.104	1.01806	136.263	145.84	0.234263
277.2	277.2	282.172	1.01793	136.292	145.88	0.234278
277.3	277.3	282.287	1.01798	136.348	145.939	0.234292
277.4	277.4	282.358	1.01787	136.378	145.981	0.234307
277.5	277.5	282.47	1.01791	136.432	146.038	0.234321
277.6	277.6	282.546	1.01782	136.464	146.082	0.234336
277.7	277.7	282.653	1.01784	136.517	146.137	0.23435
277.8	277.8	282.733	1.01776	136.55	146.183	0.234364
277.9	277.9	282.838	1.01777	136.601	146.237	0.234379
278	278	282.919	1.0177	136.636	146.283	0.234393
279	279	283.839	1.01734	137.058	146.78	0.234537
280	280	284.769	1.01703	137.489	147.28	0.23468
281	281	285.722	1.01681	137.926	147.797	0.234822
282	282	286.626	1.0164	138.343	148.283	0.234963
283	283	287.541	1.01605	138.763	148.778	0.235104
284	284	288.468	1.01573	139.189	149.279	0.235244
285	285	289.407	1.01546	139.621	149.786	0.235383
286	286	290.322	1.01511	140.039	150.282	0.235522
287	287	291.259	1.01484	140.472	150.787	0.23566
288	288	292.173	1.01449	140.892	151.28	0.235797
289	289	293.098	1.01418	141.318	151.781	0.235934
290	290	294.036	1.01392	141.747	152.289	0.23607
291	291	294.928	1.0135	142.156	152.772	0.236206
292	292	295.886	1.01331	142.597	153.289	0.236341
293	293	296.8	1.01297	143.018	153.782	0.236476
294	294	297.725	1.01267	143.442	154.283	0.23661
295	295	298.644	1.01235	143.865	154.779	0.236743
296	296	299.551	1.012	144.282	155.269	0.236876
297	297	300.468	1.01168	144.7	155.768	0.237009
298	298	301.398	1.0114	145.125	156.273	0.237141
299	299	302.32	1.0111	145.551	156.769	0.237273
300	300	303.232	1.01077	145.972	157.261	0.237404
301	301	304.182	1.01057	146.407	157.775	0.237535
302	302	305.081	1.0102	146.821	158.26	0.237665
303	303	305.993	1.00988	147.238	158.755	0.237794
304	304	306.913	1.00958	147.66	159.254	0.237922
305	305	307.837	1.0093	148.085	159.752	0.23805
306	306	308.776	1.00907	148.517	160.258	0.238177
307	307	309.684	1.00874	148.932	160.752	0.238303
308	308	310.621	1.00851	149.364	161.257	0.238428
309	309	311.528	1.00818	149.781	161.747	0.238553
310	310	312.445	1.00789	150.202	162.244	0.238677
311	311	313.374	1.00763	150.628	162.746	0.238801
312	312	314.309	1.0074	151.055	163.254	0.238924
313	313	315.198	1.00702	151.464	163.734	0.239046
314	314	316.128	1.00678	151.887	164.241	0.239168
315	315	317.063	1.00655	152.319	164.744	0.239289
316	316	317.981	1.00627	152.741	165.24	0.239409
317	317	318.901	1.006	153.162	165.74	0.239529
318	318	319.789	1.00563	153.569	166.221	0.239649
319	319	320.734	1.00544	154.004	166.73	0.239767
320	320	321.631	1.0051	154.415	167.216	0.239886
321	321	322.545	1.00481	154.832	167.713	0.240003
322	322	323.463	1.00454	155.253	168.209	0.240121
323	323	324.387	1.00429	155.679	168.708	0.240238
324	324	325.327	1.0041	156.11	169.217	0.240354
325	325	326.217	1.00374	156.517	169.7	0.24047
326	326	327.16	1.00356	156.952	170.209	0.240585
327	327	328.085	1.00332	157.374	170.711	0.2407
328	328	328.99	1.00302	157.787	171.203	0.240814
329	329	329.886	1.00269	158.198	171.688	0.240928
330	330	330.821	1.00249	158.63	172.191	0.241042
331	331	331.719	1.00217	159.039	172.68	0.241155
332	332	332.652	1.00196	159.465	173.187	0.241268
333	333	333.578	1.00174	159.891	173.687	0.241381
334	334	334.482	1.00144	160.306	174.176	0.241493
335	335	335.389	1.00116	160.723	174.666	0.241605
336	336	336.335	1.001	161.156	175.18	0.241716
337	337	337.232	1.00069	161.568	175.664	0.241827
338	338	338.139	1.00041	161.984	176.155	0.241938
339	339	339.057	1.00017	162.405	176.652	0.242048
340	340	339.987	0.999962	162.831	177.157	0.242158
341	341	340.886	0.999665	163.24	177.646	0.242268
342	342	341.818	0.999468	163.669	178.149	0.242378
343	343	342.719	0.999182	164.083	178.637	0.242487
344	344	343.632	0.99893	164.501	179.131	0.242596
345	345	344.557	0.998716	164.925	179.632	0.242704
346	346	345.474	0.998479	165.341	180.133	0.242813
347	347	346.378	0.998207	165.759	180.619	0.242921
348	348	347.281	0.997935	166.17	181.112	0.243029
349	349	348.202	0.997713	166.591	181.611	0.243137
350	350	349.109	0.997455	167.007	182.102	0.243244
351	351	350.033	0.997246	167.433	182.6	0.243351
352	352	350.971	0.997078	167.861	183.111	0.243458
353	353	351.858	0.996766	168.269	183.59	0.243564
354	354	352.768	0.99652	168.682	184.086	0.243669
355	355	353.693	0.996319	169.105	184.589	0.243774
356	356	354.609	0.996093	169.524	185.085	0.243879
357	357	355.512	0.995831	169.939	185.573	0.243983
358	358	356.421	0.995591	170.358	186.064	0.244087
359	359	357.361	0.995433	170.787	186.574	0.24419
360	360	358.247	0.995131	171.193	187.054	0.244293
361	361	359.163	0.994911	171.61	187.552	0.244395
362	362	360.085	0.994711	172.031	188.054	0.244497
363	363	360.994	0.994475	172.447	188.547	0.244598
364	364	361.895	0.994217	172.861	189.034	0.244699
365	365	362.814	0.994011	173.284	189.529	0.2448
366	366	363.744	0.993835	173.708	190.036	0.2449
367	367	364.643	0.993577	174.122	190.521	0.245
368	368	365.541	0.993318	174.531	191.01	0.2451
369	369	366.452	0.993094	174.947	191.505	0.245199
370	370	367.364	0.992875	175.365	191.999	0.245297
371	371	368.286	0.992684	175.789	192.497	0.245396
372	372	369.219	0.992525	176.214	193.005	0.245494
373	373	370.101	0.992229	176.619	193.483	0.245592
374	374	371.028	0.992054	177.042	193.986	0.245689
375	375	371.953	0.991874	177.465	194.488	0.245786
376	376	372.862	0.991655	177.881	194.981	0.245882
377	377	373.762	0.991412	178.291	195.471	0.245979
378	378	374.651	0.991142	178.699	195.953	0.246075
379	379	375.585	0.990989	179.128	196.457	0.246171
380	380	376.473	0.990717	179.532	196.94	0.246266
381	381	377.411	0.990579	179.964	197.447	0.246361
382	382	378.326	0.990382	180.38	197.946	0.246456
383	383	379.225	0.990144	180.79	198.435	0.246551
384	384	380.115	0.989883	181.197	198.918	0.246645
385	385	381.036	0.989705	181.622	199.415	0.246739
386	386	381.95	0.989507	182.038	199.912	0.246833
387	387	382.868	0.989324	182.459	200.409	0.246927
388	388	383.768	0.989092	182.871	200.897	0.24702
389	389	384.677	0.988886	183.287	201.39	0.247113
390	390	385.596	0.988707	183.706	201.889	0.247206
391	391	386.502	0.988495	184.12	202.381	0.247299
392	392	387.4	0.988266	184.532	202.868	0.247391
393	393	388.303	0.988047	184.942	203.361	0.247483
394	394	389.236	0.987909	185.369	203.867	0.247575
395	395	390.149	0.98772	185.787	204.362	0.247667
396	396	391.04	0.987475	186.192	204.848	0.247759
397	397	391.932	0.987235	186.602	205.33	0.24785
398	398	392.864	0.987097	187.03	205.834	0.247942
399	399	393.749	0.986841	187.433	206.317	0.248033
400	400	394.676	0.98669	187.857	206.819	0.248123
401	401	395.589	0.986507	188.273	207.316	0.248214
402	402	396.491	0.986296	188.684	207.807	0.248304
403	403	397.386	0.98607	189.094	208.292	0.248394
404	404	398.295	0.985879	189.512	208.783	0.248484
405	405	399.228	0.985748	189.938	209.29	0.248573
406	406	400.107	0.985486	190.34	209.767	0.248662
407	407	401.036	0.985347	190.765	210.271	0.24875
408	408	401.95	0.985171	191.182	210.768	0.248839
409	409	402.852	0.984969	191.595	211.257	0.248926
410	410	403.762	0.984786	192.01	211.752	0.249014
411	411	404.666	0.984588	192.421	212.244	0.249101
412	412	405.548	0.984339	192.825	212.723	0.249188
413	413	406.478	0.984208	193.252	213.226	0.249275
414	414	407.361	0.983965	193.653	213.708	0.249361
415	415	408.297	0.983848	194.081	214.216	0.249447
416	416	409.202	0.983659	194.496	214.706	0.249532
417	417	410.106	0.983467	194.909	215.196	0.249618
418	418	411.017	0.983294	195.325	215.692	0.249703
419	419	411.911	0.983081	195.73	216.181	0.249788
420	420	412.802	0.982863	196.14	216.662	0.249872
421	421	413.737	0.982748	196.568	217.169	0.249956
422	422	414.618	0.982507	196.971	217.648	0.250041
423	423	415.524	0.982327	197.382	218.142	0.250124
424	424	416.44	0.982169	197.799	218.641	0.250208
425	425	417.346	0.981991	198.213	219.133	0.250291
426	426	418.243	0.981791	198.624	219.619	0.250374
427	427	419.146	0.981608	199.039	220.108	0.250457
428	428	420.077	0.981487	199.464	220.613	0.250539
429	429	420.954	0.981245	199.864	221.091	0.250622
430	430	421.88	0.981115	200.284	221.595	0.250704
431	431	422.792	0.980955	200.704	222.088	0.250786
432	432	423.693	0.98077	201.116	222.577	0.250867
433	433	424.601	0.980603	201.53	223.071	0.250949
434	434	425.505	0.980425	201.941	223.564	0.25103
435	435	426.384	0.980194	202.343	224.041	0.251111
436	436	427.316	0.980082	202.77	224.546	0.251192
437	437	428.196	0.979854	203.171	225.025	0.251273
438	438	429.111	0.979705	203.588	225.523	0.251353
439	439	430.027	0.979559	204.005	226.021	0.251433
440	440	430.929	0.979384	204.417	226.512	0.251514
441	441	431.82	0.979185	204.825	226.996	0.251594
442	442	432.721	0.979007	205.238	227.483	0.251673
443	443	433.651	0.978896	205.662	227.989	0.251753
444	444	434.528	0.978667	206.063	228.466	0.251832
445	445	435.446	0.978529	206.481	228.965	0.251912
446	446	436.368	0.978403	206.901	229.466	0.251991
447	447	437.27	0.978232	207.314	229.956	0.25207
448	448	438.161	0.978038	207.718	230.443	0.252148
449	449	439.044	0.977827	208.122	230.922	0.252227
450	450	439.966	0.977702	208.546	231.42	0.252306
451	451	440.86	0.977516	208.951	231.909	0.252384
452	452	441.781	0.977392	209.374	232.407	0.252462
453	453	442.667	0.977191	209.779	232.889	0.25254
454	454	443.563	0.977011	210.186	233.377	0.252617
455	455	444.465	0.976846	210.597	233.868	0.252694
456	456	445.37	0.976689	211.011	234.359	0.252771
457	457	446.283	0.97655	211.429	234.854	0.252848
458	458	447.205	0.976429	211.849	235.356	0.252925
459	459	448.078	0.976205	212.245	235.833	0.253001
460	460	449.006	0.976099	212.671	236.334	0.253077
461	461	449.886	0.975891	213.072	236.814	0.253153
462	462	450.797	0.975751	213.487	237.31	0.253228
463	463	451.714	0.975624	213.905	237.809	0.253303
464	464	452.623	0.975481	214.321	238.303	0.253378
465	465	453.509	0.975288	214.722	238.787	0.253453
466	466	454.397	0.975101	215.129	239.268	0.253528
467	467	455.31	0.974967	215.548	239.761	0.253603
468	468	456.232	0.974854	215.967	240.265	0.253677
469	469	457.111	0.974651	216.37	240.741	0.253751
470	470	458.014	0.974498	216.779	241.235	0.253824
471	471	458.941	0.974397	217.203	241.738	0.253898
472	472	459.836	0.97423	217.613	242.224	0.253971
473	473	460.738	0.974076	218.024	242.714	0.254045
474	474	461.646	0.973937	218.438	243.208	0.254118
475	475	462.527	0.973741	218.838	243.688	0.25419
476	476	463.423	0.973578	219.249	244.174	0.254263
477	477	464.353	0.973487	219.672	244.681	0.254335
478	478	465.228	0.97328	220.073	245.155	0.254408
479	479	466.125	0.973122	220.479	245.646	0.25448
480	480	467.047	0.973014	220.9	246.147	0.254552
481	481	467.958	0.972885	221.317	246.641	0.254624
482	482	468.858	0.972734	221.727	247.131	0.254695
483	483	469.742	0.97255	222.13	247.612	0.254767
484	484	470.63	0.972376	222.536	248.094	0.254838
485	485	471.555	0.972278	222.958	248.596	0.254909
486	486	472.43	0.972077	223.355	249.074	0.25498
487	487	473.364	0.972	223.782	249.582	0.255051
488	488	474.25	0.971824	224.188	250.062	0.255121
489	489	475.142	0.97166	224.594	250.547	0.255192
490	490	476.041	0.971512	225.005	251.036	0.255262
491	491	476.948	0.971381	225.419	251.53	0.255333
492	492	477.862	0.971265	225.835	252.028	0.255403
493	493	478.744	0.971083	226.235	252.509	0.255472
494	494	479.65	0.970952	226.651	253	0.255542
495	495	480.541	0.97079	227.054	253.487	0.255612
496	496	481.468	0.970701	227.478	253.989	0.255682
497	497	482.357	0.970537	227.885	254.472	0.255751
498	498	483.253	0.970387	228.294	254.959	0.25582
499	499	484.156	0.970253	228.705	255.451	0.25589
500	500	485.067	0.970134	229.12	255.947	0.255959
501	501	485.948	0.969955	229.52	256.428	0.256028
502	502	486.846	0.969813	229.932	256.914	0.256096
503	503	487.761	0.969704	230.346	257.415	0.256165
504	504	488.649	0.969542	230.754	257.895	0.256233
505	505	489.537	0.96938	231.156	258.381	0.256301
506	506	490.457	0.969283	231.575	258.883	0.256369
507	507	491.367	0.969165	231.992	259.375	0.256437
508	508	492.265	0.969025	232.401	259.863	0.256504
509	509	493.167	0.968894	232.812	260.355	0.256572
510	510	494.061	0.968747	233.221	260.84	0.256639
511	511	494.933	0.968558	233.617	261.317	0.256706
512	512	495.852	0.968461	234.037	261.814	0.256773
513	513	496.746	0.968315	234.443	262.303	0.256839
514	514	497.651	0.968192	234.857	262.793	0.256905
515	515	498.53	0.96802	235.256	263.274	0.256972
516	516	499.454	0.967934	235.679	263.775	0.257038
517	517	500.362	0.967818	236.092	264.27	0.257104
518	518	501.258	0.96768	236.501	264.757	0.257169
519	519	502.159	0.967552	236.911	265.248	0.257235
520	520	503.038	0.967381	237.308	265.73	0.2573
521	521	503.924	0.967224	237.714	266.21	0.257365
522	522	504.84	0.967126	238.134	266.706	0.25743
523	523	505.744	0.967006	238.546	267.198	0.257495
524	524	506.636	0.966863	238.953	267.683	0.25756
525	525	507.519	0.966702	239.352	268.166	0.257625
526	526	508.44	0.966617	239.772	268.668	0.257689
527	527	509.345	0.9665	240.187	269.159	0.257753
528	528	510.24	0.966364	240.595	269.645	0.257818
529	529	511.141	0.966241	241.005	270.136	0.257881
530	530	512.041	0.966114	241.414	270.627	0.257945
531	531	512.911	0.965934	241.809	271.102	0.258009
532	532	513.819	0.965825	242.226	271.593	0.258073
533	533	514.728	0.965718	242.637	272.091	0.258136
534	534	515.615	0.965571	243.044	272.57	0.258199
535	535	516.505	0.965429	243.447	273.058	0.258263
536	536	517.433	0.96536	243.871	273.562	0.258326
537	537	518.324	0.965222	244.278	274.046	0.258389
538	538	519.219	0.965091	244.686	274.533	0.258451
539	539	520.12	0.964972	245.097	275.023	0.258514
540	540	521.022	0.964856	245.506	275.516	0.258577
541	541	521.89	0.964676	245.901	275.989	0.258639
542	542	522.799	0.964574	246.318	276.481	0.258701
543	543	523.698	0.964452	246.723	276.975	0.258764
544	544	524.596	0.964331	247.137	277.459	0.258826
545	545	525.478	0.96418	247.536	277.942	0.258888
546	546	526.389	0.964082	247.949	278.44	0.25895
547	547	527.307	0.963999	248.37	278.937	0.259011
548	548	528.203	0.963874	248.779	279.424	0.259073
549	549	529.095	0.963743	249.184	279.911	0.259135
550	550	529.971	0.963584	249.583	280.389	0.259196
551	551	530.867	0.963461	249.993	280.874	0.259258
552	552	531.787	0.963382	250.412	281.375	0.259319
553	553	532.656	0.963212	250.806	281.85	0.25938
554	554	533.58	0.96314	251.229	282.351	0.259441
555	555	534.453	0.962979	251.626	282.827	0.259501
556	556	535.36	0.962879	252.038	283.322	0.259562
557	557	536.277	0.962795	252.456	283.82	0.259622
558	558	537.167	0.962664	252.863	284.304	0.259682
559	559	538.061	0.962543	253.27	284.791	0.259743
560	560	538.961	0.96243	253.68	285.281	0.259802
561	561	539.865	0.962326	254.091	285.774	0.259862
562	562	540.735	0.962161	254.486	286.249	0.259922
563	563	541.63	0.962042	254.896	286.734	0.259981
564	564	542.551	0.961969	255.314	287.236	0.260041
565	565	543.417	0.9618	255.708	287.709	0.2601
566	566	544.346	0.961742	256.132	288.214	0.260159
567	567	545.222	0.96159	256.532	288.69	0.260218
568	568	546.105	0.961453	256.932	289.173	0.260277
569	569	547.013	0.961358	257.345	289.667	0.260335
570	570	547.911	0.961247	257.752	290.159	0.260394
571	571	548.822	0.961159	258.172	290.65	0.260452
572	572	549.7	0.961014	258.569	291.131	0.260511
573	573	550.586	0.960884	258.973	291.613	0.260569
574	574	551.496	0.960795	259.39	292.106	0.260627
575	575	552.413	0.960718	259.805	292.607	0.260685
576	576	553.276	0.960549	260.199	293.077	0.260743
577	577	554.203	0.960491	260.621	293.582	0.2608
578	578	555.076	0.960338	261.02	294.056	0.260858
579	579	555.963	0.960212	261.421	294.542	0.260915
580	580	556.876	0.960131	261.836	295.04	0.260973
581	581	557.786	0.960045	262.252	295.534	0.26103
582	582	558.68	0.959931	262.66	296.02	0.261087
583	583	559.579	0.959827	263.068	296.511	0.261144
584	584	560.463	0.959697	263.472	296.991	0.261201
585	585	561.335	0.959547	263.868	297.468	0.261258
586	586	562.248	0.959467	264.286	297.962	0.261314
587	587	563.14	0.959353	264.687	298.453	0.261371
588	588	564.033	0.95924	265.098	298.935	0.261427
589	589	564.928	0.959131	265.503	299.425	0.261484
590	590	565.841	0.959052	265.921	299.92	0.26154
591	591	566.721	0.958919	266.322	300.399	0.261596
592	592	567.608	0.958797	266.725	300.882	0.261652
593	593	568.5	0.958685	267.131	301.369	0.261708
594	594	569.397	0.958581	267.54	301.857	0.261764
595	595	570.3	0.958488	267.952	302.348	0.26182
596	596	571.209	0.958404	268.365	302.844	0.261876
597	597	572.1	0.958292	268.77	303.33	0.261931
598	598	572.98	0.95816	269.171	303.809	0.261987
599	599	573.899	0.958095	269.588	304.311	0.262042
600	600	574.774	0.957957	269.988	304.785	0.262098
601	601	575.661	0.957838	270.389	305.272	0.262153
602	602	576.587	0.957786	270.812	305.775	0.262208
603	603	577.471	0.957664	271.216	306.255	0.262263
604	604	578.359	0.957548	271.621	306.738	0.262318
605	605	579.251	0.957439	272.027	307.224	0.262373
606	606	580.148	0.95734	272.435	307.713	0.262428
607	607	581.049	0.957248	272.845	308.204	0.262482
608	608	581.955	0.957162	273.255	308.699	0.262536
609	609	582.819	0.957011	273.648	309.172	0.262591
610	610	583.719	0.956916	274.06	309.658	0.262645
611	611	584.639	0.956855	274.477	310.161	0.262699
612	612	585.502	0.956702	274.871	310.631	0.262753
613	613	586.42	0.95664	275.288	311.132	0.262806
614	614	587.303	0.956519	275.692	311.611	0.26286
615	615	588.181	0.956392	276.09	312.092	0.262914
616	616	589.088	0.956312	276.502	312.586	0.262967
617	617	589.995	0.956232	276.915	313.081	0.26302
618	618	590.898	0.956146	277.327	313.572	0.263073
619	619	591.791	0.956044	277.733	314.058	0.263127
620	620	592.666	0.955913	278.128	314.538	0.263179
621	621	593.548	0.955794	278.531	315.017	0.263232
622	622	594.446	0.9557	278.942	315.503	0.263285
623	623	595.36	0.955633	279.358	316.001	0.263338
624	624	596.232	0.955501	279.753	316.479	0.26339
625	625	597.14	0.955424	280.169	316.971	0.263443
626	626	598.018	0.9553	280.565	317.452	0.263495
627	627	598.939	0.955245	280.987	317.952	0.263548
628	628	599.814	0.955118	281.386	318.428	0.2636
629	629	600.697	0.955003	281.786	318.911	0.263652
630	630	601.594	0.954912	282.193	319.401	0.263704
631	631	602.497	0.954828	282.605	319.892	0.263756
632	632	603.388	0.954728	283.01	320.378	0.263807
633	633	604.272	0.954616	283.412	320.86	0.263859
634	634	605.167	0.954522	283.821	321.346	0.263911
635	635	606.076	0.95445	284.236	321.84	0.263962
636	636	606.982	0.954374	284.646	322.336	0.264014
637	637	607.846	0.954233	285.04	322.806	0.264065
638	638	608.768	0.954182	285.46	323.308	0.264116
639	639	609.634	0.954044	285.854	323.78	0.264168
640	640	610.541	0.95397	286.263	324.277	0.264219
641	641	611.442	0.953888	286.678	324.765	0.26427
642	642	612.322	0.953773	287.078	325.244	0.264321
643	643	613.208	0.953666	287.48	325.727	0.264372
644	644	614.099	0.953569	287.885	326.214	0.264422
645	645	614.993	0.953477	288.292	326.701	0.264473
646	646	615.891	0.953391	288.702	327.189	0.264524
647	647	616.795	0.953316	289.114	327.682	0.264574
648	648	617.704	0.953246	289.526	328.178	0.264625
649	649	618.564	0.953103	289.915	328.648	0.264675
650	650	619.475	0.953039	290.333	329.142	0.264725
651	651	620.358	0.95293	290.732	329.626	0.264776
652	652	621.264	0.952858	291.147	330.117	0.264826
653	653	622.135	0.952734	291.541	330.594	0.264876
654	654	623.048	0.952673	291.955	331.093	0.264926
655	655	623.946	0.952589	292.367	331.579	0.264975
656	656	624.827	0.95248	292.768	332.059	0.265025
657	657	625.713	0.952378	293.171	332.542	0.265075
658	658	626.603	0.952284	293.575	333.027	0.265124
659	659	627.496	0.952195	293.982	333.514	0.265174
660	660	628.394	0.952113	294.391	334.003	0.265223
661	661	629.297	0.952037	294.802	334.495	0.265272
662	662	630.202	0.951967	295.212	334.99	0.265321
663	663	631.066	0.951834	295.604	335.462	0.26537
664	664	631.966	0.951755	296.016	335.949	0.265419
665	665	632.877	0.951695	296.429	336.448	0.265468
666	666	633.745	0.951569	296.825	336.92	0.265517
667	667	634.653	0.951504	297.235	337.418	0.265565
668	668	635.541	0.951408	297.643	337.898	0.265614
669	669	636.416	0.951295	298.039	338.378	0.265662
670	670	637.331	0.951241	298.456	338.875	0.265711
671	671	638.234	0.951168	298.866	339.367	0.265759
672	672	639.12	0.951071	299.27	339.85	0.265807
673	673	640.01	0.95098	299.675	340.334	0.265855
674	674	640.904	0.950895	300.082	340.822	0.265903
675	675	641.801	0.950816	300.489	341.312	0.265951
676	676	642.678	0.950707	300.885	341.793	0.265999
677	677	643.554	0.950597	301.285	342.269	0.266047
678	678	644.458	0.950529	301.699	342.759	0.266095
679	679	645.373	0.950476	302.114	343.259	0.266142
680	680	646.231	0.95034	302.504	343.727	0.26619
681	681	647.153	0.950298	302.924	344.229	0.266237
682	682	648.018	0.950174	303.318	344.7	0.266285
683	683	648.93	0.950117	303.733	345.197	0.266332
684	684	649.824	0.950034	304.14	345.684	0.266379
685	685	650.701	0.949929	304.539	346.162	0.266427
686	686	651.584	0.949831	304.94	346.644	0.266474
687	687	652.473	0.949743	305.343	347.13	0.266521
688	688	653.365	0.949658	305.748	347.617	0.266568
689	689	654.257	0.949575	306.155	348.102	0.266614
690	690	655.154	0.949498	306.564	348.59	0.266661
691	691	656.057	0.949431	306.975	349.081	0.266708
692	692	656.964	0.949369	307.387	349.577	0.266755
693	693	657.826	0.949244	307.777	350.049	0.266801
694	694	658.729	0.949178	308.191	350.538	0.266848
695	695	659.634	0.949114	308.603	351.032	0.266894
696	696	660.512	0.949011	309.002	351.51	0.266941
697	697	661.395	0.948916	309.4	351.995	0.266987
698	698	662.311	0.94887	309.819	352.492	0.267033
699	699	663.186	0.948764	310.218	352.968	0.26708
700	700	664.066	0.948666	310.617	353.449	0.267126
701	701	664.956	0.948582	311.02	353.936	0.267172
702	702	665.851	0.948506	311.427	354.424	0.267218
703	703	666.744	0.948426	311.833	354.911	0.267264
704	704	667.631	0.948339	312.237	355.394	0.267309
705	705	668.521	0.948257	312.643	355.879	0.267355
706	706	669.421	0.948188	313.054	356.367	0.267401
707	707	670.327	0.948129	313.466	356.862	0.267446
708	708	671.209	0.948036	313.863	357.347	0.267492
709	709	672.088	0.947938	314.266	357.822	0.267537
710	710	673.005	0.947894	314.683	358.322	0.267583
711	711	673.868	0.947775	315.074	358.794	0.267628
712	712	674.788	0.947736	315.494	359.294	0.267673
713	713	675.654	0.947622	315.888	359.766	0.267718
714	714	676.561	0.947565	316.3	360.261	0.267763
715	715	677.46	0.947497	316.709	360.751	0.267808
716	716	678.337	0.947399	317.109	361.228	0.267853
717	717	679.219	0.947307	317.509	361.71	0.267898
718	718	680.106	0.947222	317.911	362.194	0.267943
719	719	680.996	0.947143	318.316	362.68	0.267988
720	720	681.887	0.947066	318.722	363.166	0.268032
721	721	682.782	0.946993	319.13	363.652	0.268077
722	722	683.682	0.946928	319.54	364.142	0.268121
723	723	684.587	0.946869	319.95	364.636	0.268166
724	724	685.474	0.946787	320.354	365.12	0.26821
725	725	686.344	0.946682	320.749	365.595	0.268255
726	726	687.26	0.946638	321.166	366.094	0.268299
727	727	688.122	0.946523	321.556	366.566	0.268343
728	728	689.04	0.946483	321.976	367.064	0.268387
729	729	689.905	0.946372	322.368	367.537	0.268431
730	730	690.813	0.946319	322.779	368.034	0.268475
731	731	691.708	0.946249	323.189	368.519	0.268519
732	732	692.584	0.946153	323.588	368.996	0.268563
733	733	693.467	0.946066	323.987	369.479	0.268607
734	734	694.358	0.945992	324.391	369.967	0.26865
735	735	695.252	0.945921	324.798	370.454	0.268694
736	736	696.141	0.945843	325.202	370.939	0.268738
737	737	697.028	0.945764	325.606	371.422	0.268781
738	738	697.923	0.945695	326.015	371.908	0.268825
739	739	698.826	0.945638	326.426	372.4	0.268868
740	740	699.732	0.945584	326.837	372.895	0.268912
741	741	700.591	0.945467	327.226	373.365	0.268955
742	742	701.497	0.945413	327.641	373.856	0.268998
743	743	702.392	0.945346	328.047	374.345	0.269041
744	744	703.276	0.945263	328.45	374.826	0.269085
745	745	704.156	0.945176	328.847	375.309	0.269128
746	746	705.07	0.945134	329.265	375.806	0.269171
747	747	705.942	0.945036	329.662	376.28	0.269214
748	748	706.822	0.944949	330.06	376.762	0.269257
749	749	707.723	0.94489	330.469	377.254	0.2693
750	750	708.619	0.944825	330.875	377.744	0.269343
278.1	275.609	279.474	1.01402	134.114	145.36	0.236526
278.2	273.782	276.731	1.01077	132.341	144.39	0.238205
278.3	272.366	274.63	1.00831	131.046	143.584	0.239516
278.4	271.163	272.881	1.00634	130.007	142.874	0.240506
278.5	270.096	271.359	1.00467	129.124	142.235	0.241295
278.6	269.128	269.998	1.00323	128.349	141.65	0.241957
278.7	268.235	268.757	1.00195	127.65	141.107	0.24253
278.8	267.397	267.605	1.00078	127.009	140.596	0.243042
278.9	266.611	266.534	0.999713	126.418	140.117	0.2435
279	265.869	265.533	0.998735	125.869	139.664	0.243916
279.1	265.161	264.583	0.997823	125.352	139.231	0.2443
279.2	264.484	263.683	0.996971	124.864	138.819	0.244655
279.3	263.837	262.828	0.996173	124.403	138.424	0.244985
279.4	263.214	262.007	0.995417	123.963	138.044	0.245296
279.5	262.612	261.22	0.9947	123.542	137.678	0.24559
279.6	262.031	260.464	0.99402	123.14	137.325	0.245866
279.7	261.469	259.736	0.993372	122.753	136.983	0.246128
279.8	260.922	259.031	0.99275	122.38	136.651	0.246379
279.9	260.391	258.348	0.992154	122.019	136.329	0.246619
280	259.875	257.688	0.991583	121.672	136.016	0.246848
280.1	259.371	257.045	0.991031	121.334	135.711	0.247068
280.2	258.878	256.418	0.990496	121.005	135.413	0.247282
280.3	258.395	255.806	0.989977	120.685	135.121	0.247489
280.4	257.923	255.208	0.989475	120.373	134.836	0.247689
280.5	257.461	254.626	0.988988	120.069	134.557	0.247883
280.6	257.009	254.058	0.988516	119.773	134.284	0.24807
280.7	256.567	253.503	0.98806	119.485	134.018	0.248251
280.8	256.134	252.963	0.987618	119.205	133.758	0.248425
280.9	255.711	252.435	0.98719	118.932	133.504	0.248593
281	255.295	251.919	0.986774	118.664	133.254	0.248757
282	251.491	247.241	0.983102	116.261	130.98	0.250194
283	248.171	243.226	0.980076	114.217	129.01	0.251376
284	245.207	239.689	0.977495	112.428	127.261	0.252381
285	242.516	236.511	0.975236	110.829	125.682	0.25326
286	240.04	233.612	0.97322	109.377	124.235	0.254046
287	237.74	230.939	0.971392	108.043	122.896	0.25476
288	235.59	228.457	0.969722	106.808	121.649	0.255413
289	233.567	226.135	0.968179	105.656	120.479	0.256018
290	231.654	223.95	0.966744	104.574	119.376	0.256582
291	229.839	221.887	0.965402	103.554	118.332	0.257111
292	228.109	219.928	0.964139	102.589	117.34	0.25761
293	226.457	218.066	0.962948	101.672	116.394	0.258082
294	224.873	216.287	0.961817	100.797	115.489	0.258532
295	223.353	214.585	0.960743	99.9622	114.623	0.258961
296	221.891	212.952	0.959718	99.1619	113.791	0.259371
297	220.482	211.384	0.958739	98.3942	112.99	0.259764
298	219.121	209.874	0.9578	97.6555	112.218	0.260143
299	217.805	208.418	0.956898	96.9443	111.473	0.260507
300	216.531	207.01	0.95603	96.2576	110.753	0.26086
301	215.297	205.65	0.955194	95.5946	110.056	0.2612
302	214.099	204.333	0.954386	94.9532	109.38	0.261529
303	212.937	203.058	0.953606	94.3324	108.725	0.261849
304	211.807	201.821	0.952851	93.7309	108.09	0.262158
305	210.708	200.62	0.95212	93.1473	107.472	0.262458
306	209.639	199.453	0.951411	92.5809	106.872	0.26275
307	208.597	198.318	0.950722	92.0303	106.288	0.263034
308	207.582	197.214	0.950053	91.4949	105.719	0.26331
309	206.589	196.135	0.9494	90.9721	105.163	0.263583
310	205.615	195.079	0.94876	90.4606	104.619	0.263854
311	204.66	194.046	0.948134	89.9603	104.085	0.264123
312	203.725	193.034	0.947522	89.471	103.563	0.26439
313	202.809	192.045	0.946923	88.9927	103.052	0.264652
314	201.912	191.077	0.946338	88.5251	102.552	0.264911
315	201.034	190.131	0.945766	88.0682	102.063	0.265164
316	200.175	189.206	0.945207	87.6217	101.585	0.265412
317	199.334	188.303	0.944662	87.1857	101.117	0.265654
318	198.511	187.42	0.944129	86.7599	100.66	0.265889
319	197.706	186.558	0.94361	86.3442	100.213	0.266117
320	196.92	185.716	0.943103	85.9385	99.7771	0.266337
321	196.151	184.894	0.942608	85.5426	99.351	0.266549
322	195.398	184.089	0.942124	85.1551	98.9337	0.266756
323	194.655	183.297	0.941648	84.774	98.5228	0.266962
324	193.924	182.518	0.941179	84.3991	98.1184	0.267168
325	193.205	181.751	0.940717	84.0305	97.7205	0.267372
326	192.496	180.997	0.940263	83.6681	97.329	0.267575
327	191.799	180.256	0.939816	83.3118	96.9438	0.267776
328	191.112	179.527	0.939377	82.9616	96.5649	0.267975
329	190.437	178.81	0.938945	82.6175	96.1924	0.268171
330	189.772	178.105	0.938521	82.2793	95.826	0.268365
331	189.119	177.413	0.938104	81.9471	95.4659	0.268555
332	188.476	176.733	0.937694	81.6208	95.1119	0.268741
333	187.844	176.064	0.937291	81.3003	94.7641	0.268924
334	187.223	175.408	0.936895	80.9857	94.4224	0.269103
335	186.612	174.763	0.936507	80.6767	94.0867	0.269277
336	186.012	174.131	0.936125	80.3735	93.757	0.269447
337	185.421	173.507	0.935749	80.0751	93.4324	0.269614
338	184.837	172.892	0.935378	79.7805	93.1117	0.269782
339	184.26	172.285	0.935012	79.4898	92.7951	0.269949
340	183.689	171.685	0.93465	79.2029	92.4825	0.270116
341	183.126	171.094	0.934293	78.9198	92.1738	0.270282
342	182.57	170.51	0.93394	78.6405	91.8691	0.270447
343	182.021	169.933	0.933592	78.365	91.5683	0.270611
344	181.479	169.365	0.933248	78.0932	91.2715	0.270774
345	180.943	168.804	0.932909	77.8251	90.9786	0.270935
346	180.415	168.25	0.932575	77.5607	90.6896	0.271095
347	179.893	167.704	0.932244	77.3	90.4044	0.271253
348	179.378	167.166	0.931919	77.043	90.1232	0.271409
349	178.87	166.635	0.931598	76.7896	89.8457	0.271562
350	178.369	166.112	0.931281	76.5398	89.5722	0.271714
351	177.875	165.596	0.930969	76.2937	89.3026	0.271862
352	177.389	165.089	0.930661	76.0515	89.0371	0.272008
353	176.909	164.588	0.930358	75.8128	88.7753	0.272151
354	176.434	164.094	0.930057	75.5769	88.5166	0.272293
355	175.964	163.604	0.92976	75.3438	88.2607	0.272435
356	175.5	163.121	0.929466	75.1133	88.0077	0.272576
357	175.04	162.643	0.929176	74.8856	87.7576	0.272717
358	174.586	162.171	0.928888	74.6606	87.5103	0.272856
359	174.137	161.704	0.928604	74.4382	87.2659	0.272995
360	173.693	161.243	0.928322	74.2186	87.0243	0.273133
361	173.254	160.787	0.928044	74.0016	86.7856	0.273269
362	172.82	160.337	0.927769	73.7872	86.5497	0.273404
363	172.391	159.892	0.927498	73.5755	86.3167	0.273538
364	171.967	159.453	0.927229	73.3664	86.0864	0.273669
365	171.548	159.019	0.926963	73.1599	85.859	0.2738
366	171.134	158.59	0.926701	72.956	85.6343	0.273928
367	170.726	158.167	0.926441	72.7547	85.4125	0.274055
368	170.322	157.749	0.926185	72.556	85.1934	0.274179
369	169.923	157.337	0.925932	72.3599	84.9771	0.274301
370	169.529	156.93	0.925681	72.1662	84.7635	0.274422
371	169.139	156.527	0.925433	71.9746	84.552	0.274541
372	168.752	156.127	0.925187	71.7848	84.3425	0.274661
373	168.369	155.732	0.924944	71.5969	84.135	0.27478
374	167.989	155.34	0.924703	71.4109	83.9294	0.274899
375	167.613	154.952	0.924464	71.2266	83.7259	0.275018
376	167.241	154.568	0.924227	71.0442	83.5242	0.275136
377	166.872	154.188	0.923992	70.8637	83.3245	0.275254
378	166.506	153.812	0.92376	70.6849	83.1268	0.275371
379	166.144	153.439	0.923529	70.508	82.931	0.275487
380	165.786	153.07	0.923301	70.3328	82.7372	0.275602
381	165.43	152.705	0.923075	70.1595	82.5453	0.275717
382	165.079	152.343	0.922852	69.988	82.3553	0.275831
383	164.731	151.985	0.92263	69.8182	82.1673	0.275943
384	164.386	151.631	0.922411	69.6503	81.9812	0.276055
385	164.045	151.281	0.922193	69.4841	81.797	0.276165
386	163.707	150.934	0.921978	69.3197	81.6147	0.276274
387	163.373	150.591	0.921765	69.157	81.4343	0.276382
388	163.042	150.252	0.921554	68.9961	81.2559	0.276488
389	162.714	149.916	0.921345	68.8368	81.079	0.276594
390	162.389	149.582	0.921138	68.6787	80.9036	0.2767
391	162.066	149.251	0.920932	68.5219	80.7295	0.276806
392	161.745	148.923	0.920728	68.3664	80.5568	0.276912
393	161.427	148.598	0.920526	68.2122	80.3854	0.277018
394	161.111	148.275	0.920325	68.0592	80.2154	0.277124
395	160.798	147.954	0.920125	67.9075	80.0467	0.27723
396	160.487	147.636	0.919928	67.757	79.8794	0.277336
397	160.179	147.321	0.919731	67.6078	79.7135	0.277442
398	159.873	147.009	0.919537	67.4599	79.5488	0.277547
399	159.569	146.699	0.919344	67.3132	79.3856	0.277652
400	159.268	146.391	0.919152	67.1677	79.2237	0.277757
401	158.969	146.087	0.918963	67.0236	79.0632	0.277861
402	158.674	145.785	0.918774	66.8809	78.9042	0.277964
403	158.381	145.486	0.918588	66.7397	78.7468	0.278066
404	158.09	145.191	0.918403	66.5998	78.5909	0.278167
405	157.803	144.898	0.91822	66.4613	78.4366	0.278266
406	157.518	144.608	0.918038	66.3242	78.2838	0.278365
407	157.237	144.321	0.917858	66.1885	78.1325	0.278462
408	156.957	144.037	0.91768	66.054	77.9826	0.278558
409	156.68	143.755	0.917503	65.9207	77.8339	0.278654
410	156.405	143.475	0.917327	65.7884	77.6863	0.278749
411	156.132	143.197	0.917152	65.6571	77.5398	0.278845
412	155.861	142.921	0.916979	65.5269	77.3945	0.27894
413	155.592	142.648	0.916807	65.3978	77.2503	0.279035
414	155.326	142.377	0.916636	65.2697	77.1073	0.279129
415	155.061	142.108	0.916467	65.1427	76.9654	0.279223
416	154.798	141.841	0.916299	65.0167	76.8247	0.279317
417	154.538	141.577	0.916132	64.8917	76.685	0.27941
418	154.279	141.314	0.915966	64.7678	76.5466	0.279503
419	154.023	141.054	0.915802	64.6449	76.4092	0.279595
420	153.768	140.796	0.915639	64.5231	76.273	0.279686
421	153.516	140.54	0.915477	64.4023	76.1379	0.279777
422	153.265	140.286	0.915317	64.2825	76.0039	0.279867
423	153.017	140.035	0.915157	64.1637	75.8711	0.279956
424	152.771	139.785	0.914999	64.046	75.7394	0.280045
425	152.527	139.538	0.914842	63.9293	75.6088	0.280133
426	152.285	139.293	0.914687	63.8137	75.4794	0.28022
427	152.045	139.05	0.914532	63.699	75.351	0.280305
428	151.807	138.809	0.914379	63.5852	75.2237	0.280391
429	151.57	138.569	0.914227	63.4723	75.0972	0.280476
430	151.335	138.332	0.914076	63.3601	74.9715	0.280562
431	151.101	138.095	0.913926	63.2487	74.8467	0.280647
432	150.869	137.861	0.913776	63.1381	74.7227	0.280732
433	150.639	137.628	0.913628	63.0282	74.5996	0.280818
434	150.41	137.396	0.913481	62.9191	74.4773	0.280903
435	150.182	137.167	0.913335	62.8108	74.3558	0.280987
436	149.956	136.939	0.913189	62.7033	74.2352	0.281072
437	149.732	136.712	0.913045	62.5965	74.1155	0.281156
438	149.509	136.487	0.912902	62.4905	73.9965	0.28124
439	149.288	136.264	0.91276	62.3853	73.8784	0.281324
440	149.068	136.042	0.912618	62.2808	73.7612	0.281407
441	148.849	135.822	0.912478	62.1771	73.6448	0.28149
442	148.633	135.603	0.912339	62.0742	73.5292	0.281573
443	148.417	135.386	0.9122	61.972	73.4144	0.281655
444	148.204	135.171	0.912063	61.8706	73.3005	0.281737
445	147.992	134.957	0.911927	61.77	73.1874	0.281818
446	147.781	134.745	0.911791	61.6701	73.0752	0.281899
447	147.572	134.535	0.911657	61.571	72.9638	0.281979
448	147.364	134.326	0.911523	61.4726	72.8531	0.282059
449	147.157	134.118	0.91139	61.3747	72.7431	0.282139
450	146.951	133.911	0.911258	61.2772	72.6335	0.28222
451	146.747	133.705	0.911127	61.1803	72.5245	0.282301
452	146.543	133.5	0.910996	61.084	72.4161	0.282382
453	146.341	133.297	0.910866	60.9883	72.3084	0.282463
454	146.139	133.095	0.910737	60.8932	72.2013	0.282545
455	145.939	132.894	0.910609	60.7987	72.0949	0.282626
456	145.74	132.694	0.910481	60.7047	71.989	0.282707
457	145.542	132.495	0.910355	60.6114	71.8839	0.282788
458	145.346	132.298	0.910229	60.5186	71.7793	0.28287
459	145.15	132.102	0.910103	60.4264	71.6754	0.282951
460	144.956	131.907	0.909979	60.3348	71.5722	0.283032
461	144.763	131.713	0.909855	60.2437	71.4695	0.283113
462	144.571	131.521	0.909732	60.1533	71.3675	0.283194
463	144.38	131.33	0.90961	60.0634	71.2662	0.283275
464	144.191	131.14	0.909488	59.9741	71.1655	0.283355
465	144.002	130.951	0.909367	59.8854	71.0654	0.283435
466	143.815	130.763	0.909247	59.7972	70.9659	0.283516
467	143.629	130.577	0.909128	59.7096	70.8671	0.283595
468	143.444	130.392	0.909009	59.6226	70.7689	0.283675
469	143.26	130.208	0.908891	59.5362	70.6714	0.283754
470	143.077	130.025	0.908774	59.4504	70.5744	0.283833
471	142.896	129.843	0.908658	59.3651	70.4781	0.283912
472	142.715	129.663	0.908542	59.2804	70.3825	0.28399
473	142.536	129.484	0.908427	59.1963	70.2875	0.284068
474	142.358	129.306	0.908313	59.1127	70.1931	0.284146
475	142.181	129.129	0.908199	59.0297	70.0993	0.284223
476	142.006	128.953	0.908087	58.9473	70.0061	0.2843
477	141.831	128.779	0.907974	58.8654	69.9136	0.284376
478	141.658	128.606	0.907863	58.7841	69.8217	0.284452
479	141.486	128.434	0.907752	58.7034	69.7305	0.284527
480	141.315	128.263	0.907642	58.6232	69.6399	0.284602
481	141.145	128.094	0.907533	58.5436	69.5499	0.284676
482	140.976	127.925	0.907425	58.4646	69.4605	0.28475
483	140.808	127.758	0.907317	58.3861	69.3717	0.284823
484	140.642	127.592	0.90721	58.3082	69.2836	0.284896
485	140.477	127.427	0.907103	58.2309	69.1961	0.284968
486	140.313	127.263	0.906997	58.1541	69.1093	0.285039
487	140.15	127.101	0.906892	58.0779	69.023	0.28511
488	139.988	126.94	0.906788	58.0022	68.9374	0.28518
489	139.828	126.779	0.906684	57.9271	68.8524	0.28525
490	139.668	126.621	0.906581	57.8525	68.768	0.285318
491	139.509	126.462	0.906479	57.7783	68.6841	0.285387
492	139.351	126.305	0.906377	57.7045	68.6005	0.285456
493	139.194	126.148	0.906275	57.6309	68.5172	0.285526
494	139.037	125.992	0.906174	57.5577	68.4343	0.285596
495	138.881	125.837	0.906074	57.4848	68.3517	0.285666
496	138.726	125.682	0.905974	57.4123	68.2695	0.285737
497	138.571	125.528	0.905875	57.3401	68.1876	0.285807
498	138.416	125.374	0.905776	57.2682	68.1061	0.285878
499	138.263	125.222	0.905677	57.1966	68.0249	0.28595
500	138.11	125.069	0.905579	57.1253	67.9441	0.286021
501	137.958	124.918	0.905482	57.0544	67.8637	0.286093
502	137.806	124.768	0.905385	56.984	67.7837	0.286165
503	137.656	124.618	0.905289	56.9139	67.7042	0.286236
504	137.506	124.469	0.905193	56.8442	67.6251	0.286307
505	137.357	124.321	0.905098	56.7749	67.5465	0.286378
506	137.209	124.174	0.905003	56.7061	67.4683	0.286449
507	137.062	124.028	0.904909	56.6376	67.3906	0.286519
508	136.915	123.883	0.904815	56.5696	67.3133	0.28659
509	136.77	123.738	0.904722	56.5019	67.2365	0.28666
510	136.625	123.595	0.904629	56.4347	67.1601	0.28673
511	136.481	123.452	0.904537	56.3678	67.0842	0.286799
512	136.338	123.31	0.904445	56.3014	67.0087	0.286868
513	136.196	123.169	0.904354	56.2354	66.9336	0.286937
514	136.054	123.029	0.904264	56.1697	66.8591	0.287006
515	135.914	122.889	0.904174	56.1045	66.7849	0.287074
516	135.774	122.751	0.904084	56.0397	66.7112	0.287142
517	135.635	122.613	0.903995	55.9752	66.638	0.28721
518	135.497	122.476	0.903906	55.9112	66.5652	0.287277
519	135.359	122.34	0.903818	55.8475	66.4928	0.287344
520	135.223	122.205	0.903731	55.7843	66.4209	0.287411
521	135.087	122.071	0.903644	55.7215	66.3495	0.287477
522	134.953	121.937	0.903557	55.659	66.2785	0.287543
523	134.819	121.805	0.903471	55.597	66.2079	0.287608
524	134.686	121.673	0.903385	55.5353	66.1378	0.287673
525	134.553	121.542	0.9033	55.4741	66.0681	0.287737
526	134.422	121.412	0.903216	55.4132	65.9989	0.287801
527	134.291	121.283	0.903132	55.3528	65.9301	0.287864
528	134.162	121.154	0.903048	55.2927	65.8618	0.287927
529	134.033	121.027	0.902965	55.233	65.7939	0.28799
530	133.905	120.9	0.902882	55.1737	65.7264	0.288051
531	133.777	120.774	0.9028	55.1149	65.6594	0.288113
532	133.651	120.649	0.902719	55.0564	65.5929	0.288174
533	133.525	120.525	0.902637	54.9983	65.5267	0.288234
534	133.401	120.402	0.902557	54.9405	65.461	0.288294
535	133.276	120.279	0.902476	54.8831	65.3956	0.288354
536	133.152	120.156	0.902396	54.8258	65.3304	0.288414
537	133.029	120.034	0.902317	54.7688	65.2655	0.288474
538	132.906	119.913	0.902238	54.712	65.2008	0.288535
539	132.784	119.792	0.902159	54.6555	65.1364	0.288596
540	132.662	119.671	0.90208	54.5991	65.0723	0.288657
541	132.54	119.551	0.902002	54.5431	65.0083	0.288718
542	132.419	119.432	0.901924	54.4872	64.9447	0.288779
543	132.298	119.313	0.901847	54.4316	64.8813	0.28884
544	132.178	119.194	0.90177	54.3762	64.8181	0.288902
545	132.058	119.076	0.901694	54.321	64.7552	0.288964
546	131.939	118.959	0.901617	54.2661	64.6925	0.289026
547	131.82	118.842	0.901541	54.2114	64.6301	0.289088
548	131.702	118.725	0.901466	54.157	64.568	0.28915
549	131.584	118.609	0.901391	54.1027	64.5061	0.289212
550	131.467	118.493	0.901316	54.0487	64.4444	0.289275
551	131.35	118.378	0.901242	53.995	64.3831	0.289337
552	131.234	118.264	0.901168	53.9415	64.322	0.289399
553	131.118	118.15	0.901094	53.8884	64.2613	0.289461
554	131.003	118.036	0.901021	53.8355	64.2009	0.289523
555	130.889	117.924	0.900948	53.7829	64.1408	0.289584
556	130.775	117.812	0.900875	53.7306	64.0811	0.289646
557	130.661	117.7	0.900803	53.6786	64.0217	0.289706
558	130.549	117.589	0.900731	53.6268	63.9626	0.289767
559	130.437	117.479	0.90066	53.5754	63.9038	0.289828
560	130.325	117.37	0.900589	53.5243	63.8454	0.289888
561	130.215	117.261	0.900518	53.4734	63.7872	0.289948
562	130.104	117.152	0.900448	53.4228	63.7294	0.290007
563	129.995	117.044	0.900378	53.3725	63.672	0.290067
564	129.886	116.937	0.900308	53.3225	63.6148	0.290125
565	129.777	116.831	0.900239	53.2728	63.558	0.290184
566	129.67	116.725	0.90017	53.2234	63.5014	0.290242
567	129.563	116.619	0.900102	53.1742	63.4453	0.2903
568	129.456	116.515	0.900034	53.1254	63.3894	0.290358
569	129.35	116.411	0.899966	53.0768	63.3338	0.290415
570	129.245	116.307	0.899898	53.0285	63.2786	0.290472
571	129.14	116.204	0.899831	52.9805	63.2237	0.290529
572	129.036	116.102	0.899765	52.9327	63.1691	0.290585
573	128.932	116	0.899698	52.8853	63.1149	0.290641
574	128.829	115.899	0.899632	52.8381	63.061	0.290696
575	128.727	115.799	0.899567	52.7913	63.0073	0.290751
576	128.625	115.699	0.899501	52.7447	62.954	0.290805
577	128.524	115.599	0.899437	52.6983	62.9011	0.29086
578	128.424	115.501	0.899372	52.6523	62.8484	0.290913
579	128.324	115.403	0.899308	52.6066	62.7961	0.290967
580	128.224	115.305	0.899244	52.561	62.7439	0.29102
581	128.125	115.208	0.89918	52.5155	62.692	0.291074
582	128.026	115.11	0.899117	52.4703	62.6402	0.291127
583	127.928	115.014	0.899053	52.4252	62.5886	0.291181
584	127.83	114.918	0.898991	52.3803	62.5372	0.291235
585	127.732	114.822	0.898928	52.3356	62.486	0.291289
586	127.634	114.726	0.898866	52.2911	62.435	0.291343
587	127.537	114.631	0.898804	52.2467	62.3841	0.291398
588	127.44	114.536	0.898742	52.2025	62.3335	0.291452
589	127.344	114.441	0.898681	52.1584	62.283	0.291507
590	127.248	114.347	0.89862	52.1146	62.2328	0.291561
591	127.152	114.254	0.898559	52.0709	62.1827	0.291616
592	127.057	114.16	0.898498	52.0274	62.1328	0.29167
593	126.962	114.067	0.898438	51.984	62.0831	0.291725
594	126.867	113.974	0.898378	51.9408	62.0336	0.29178
595	126.773	113.882	0.898318	51.8978	61.9842	0.291835
596	126.679	113.79	0.898259	51.855	61.9351	0.29189
597	126.585	113.698	0.898199	51.8123	61.8861	0.291945
598	126.492	113.607	0.89814	51.7698	61.8374	0.292
599	126.399	113.516	0.898082	51.7275	61.7888	0.292055
600	126.306	113.426	0.898023	51.6854	61.7404	0.29211
601	126.214	113.336	0.897965	51.6434	61.6923	0.292165
602	126.122	113.246	0.897907	51.6017	61.6443	0.29222
603	126.031	113.157	0.89785	51.5601	61.5967	0.292274
604	125.94	113.068	0.897793	51.5188	61.5492	0.292329
605	125.85	112.98	0.897736	51.4777	61.502	0.292383
606	125.76	112.892	0.897679	51.4369	61.4551	0.292436
607	125.67	112.805	0.897623	51.3962	61.4084	0.29249
608	125.582	112.718	0.897566	51.3558	61.362	0.292543
609	125.493	112.631	0.89751	51.3155	61.3158	0.292596
610	125.405	112.545	0.897455	51.2755	61.2698	0.292649
611	125.317	112.46	0.8974	51.2357	61.2241	0.292701
612	125.23	112.375	0.897344	51.1962	61.1787	0.292753
613	125.144	112.29	0.89729	51.1568	61.1335	0.292805
614	125.058	112.206	0.897235	51.1177	61.0885	0.292856
615	124.972	112.122	0.897181	51.0787	61.0438	0.292907
616	124.887	112.039	0.897127	51.04	60.9993	0.292958
617	124.802	111.957	0.897073	51.0015	60.9551	0.293009
618	124.718	111.874	0.89702	50.9632	60.9111	0.293059
619	124.634	111.792	0.896967	50.9252	60.8673	0.293108
620	124.551	111.711	0.896914	50.8873	60.8238	0.293158
621	124.468	111.63	0.896861	50.8497	60.7806	0.293207
622	124.385	111.55	0.896809	50.8122	60.7376	0.293256
623	124.303	111.47	0.896756	50.775	60.6948	0.293304
624	124.222	111.39	0.896705	50.738	60.6523	0.293352
625	124.141	111.311	0.896653	50.7012	60.61	0.2934
626	124.06	111.232	0.896601	50.6645	60.5679	0.293448
627	123.979	111.154	0.89655	50.628	60.5259	0.293496
628	123.899	111.076	0.896499	50.5915	60.484	0.293544
629	123.819	110.998	0.896449	50.5553	60.4423	0.293592
630	123.739	110.92	0.896398	50.5191	60.4007	0.29364
631	123.66	110.842	0.896348	50.4831	60.3592	0.293689
632	123.581	110.765	0.896298	50.4471	60.3179	0.293737
633	123.502	110.688	0.896248	50.4114	60.2768	0.293785
634	123.423	110.611	0.896198	50.3757	60.2357	0.293834
635	123.345	110.535	0.896149	50.3402	60.1949	0.293883
636	123.266	110.459	0.896099	50.3048	60.1541	0.293931
637	123.188	110.383	0.89605	50.2695	60.1135	0.29398
638	123.111	110.307	0.896002	50.2344	60.0731	0.294029
639	123.033	110.232	0.895953	50.1994	60.0327	0.294078
640	122.956	110.157	0.895905	50.1645	59.9926	0.294126
641	122.879	110.082	0.895857	50.1298	59.9525	0.294175
642	122.803	110.008	0.895809	50.0951	59.9127	0.294224
643	122.726	109.934	0.895761	50.0606	59.8729	0.294273
644	122.65	109.86	0.895713	50.0263	59.8333	0.294322
645	122.575	109.786	0.895666	49.992	59.7938	0.294371
646	122.499	109.712	0.895619	49.9579	59.7545	0.29442
647	122.424	109.639	0.895572	49.9239	59.7153	0.294469
648	122.349	109.566	0.895525	49.8901	59.6763	0.294518
649	122.274	109.494	0.895479	49.8563	59.6374	0.294568
650	122.199	109.421	0.895433	49.8227	59.5986	0.294617
651	122.125	109.349	0.895387	49.7893	59.5601	0.294666
652	122.051	109.278	0.895341	49.756	59.5216	0.294714
653	121.978	109.206	0.895295	49.7229	59.4834	0.294763
654	121.905	109.135	0.89525	49.6899	59.4454	0.294811
655	121.832	109.065	0.895204	49.6571	59.4075	0.29486
656	121.76	108.994	0.895159	49.6244	59.3699	0.294907
657	121.688	108.924	0.895115	49.5919	59.3324	0.294955
658	121.616	108.855	0.89507	49.5596	59.2951	0.295003
659	121.544	108.785	0.895026	49.5275	59.258	0.29505
660	121.473	108.717	0.894982	49.4955	59.2211	0.295097
661	121.403	108.648	0.894938	49.4636	59.1843	0.295144
662	121.333	108.58	0.894894	49.4319	59.1478	0.29519
663	121.263	108.512	0.89485	49.4004	59.1114	0.295236
664	121.193	108.444	0.894807	49.3691	59.0752	0.295282
665	121.124	108.377	0.894764	49.3379	59.0392	0.295328
666	121.055	108.31	0.894721	49.3068	59.0034	0.295373
667	120.986	108.244	0.894678	49.276	58.9678	0.295419
668	120.918	108.178	0.894635	49.2453	58.9323	0.295464
669	120.85	108.112	0.894593	49.2147	58.8971	0.295508
670	120.783	108.046	0.894551	49.1843	58.862	0.295553
671	120.716	107.981	0.894509	49.1541	58.8271	0.295597
672	120.649	107.916	0.894467	49.124	58.7924	0.295641
673	120.582	107.852	0.894426	49.094	58.7577	0.295685
674	120.516	107.787	0.894384	49.064	58.7232	0.295729
675	120.449	107.723	0.894343	49.0342	58.6887	0.295773
676	120.383	107.659	0.894302	49.0045	58.6544	0.295818
677	120.317	107.595	0.894261	48.9749	58.6202	0.295862
678	120.252	107.532	0.89422	48.9454	58.5861	0.295906
679	120.186	107.468	0.89418	48.916	58.5521	0.295951
680	120.121	107.405	0.894139	48.8867	58.5183	0.295995
681	120.056	107.342	0.894099	48.8575	58.4845	0.29604
682	119.991	107.279	0.894059	48.8283	58.4508	0.296084
683	119.927	107.217	0.894019	48.7993	58.4173	0.296129
684	119.862	107.154	0.893979	48.7704	58.3839	0.296174
685	119.798	107.092	0.89394	48.7416	58.3505	0.296218
686	119.734	107.03	0.8939	48.7129	58.3173	0.296263
687	119.67	106.968	0.893861	48.6843	58.2842	0.296308
688	119.607	106.907	0.893822	48.6558	58.2512	0.296353
689	119.543	106.846	0.893783	48.6273	58.2184	0.296397
690	119.48	106.785	0.893745	48.599	58.1856	0.296442
691	119.417	106.724	0.893706	48.5708	58.1529	0.296487
692	119.354	106.663	0.893668	48.5427	58.1204	0.296532
693	119.292	106.603	0.89363	48.5147	58.0879	0.296577
694	119.229	106.542	0.893592	48.4867	58.0556	0.296622
695	119.167	106.482	0.893554	48.4589	58.0234	0.296666
696	119.105	106.422	0.893516	48.4312	57.9913	0.296711
697	119.044	106.363	0.893478	48.4036	57.9593	0.296756
698	118.982	106.303	0.893441	48.376	57.9274	0.296801
699	118.921	106.244	0.893404	48.3486	57.8956	0.296846
700	118.86	106.185	0.893367	48.3213	57.864	0.296891
701	118.799	106.126	0.89333	48.2941	57.8324	0.296935
702	118.738	106.068	0.893293	48.267	57.801	0.29698
703	118.678	106.01	0.893257	48.24	57.7698	0.297024
704	118.618	105.952	0.89322	48.2131	57.7386	0.297068
705	118.558	105.894	0.893184	48.1864	57.7077	0.297112
706	118.498	105.837	0.893148	48.1598	57.6768	0.297156
707	118.439	105.779	0.893112	48.1333	57.6461	0.2972
708	118.38	105.723	0.893076	48.107	57.6156	0.297244
709	118.321	105.666	0.893041	48.0807	57.5851	0.297287
710	118.263	105.609	0.893005	48.0546	57.5549	0.29733
711	118.205	105.553	0.89297	48.0286	57.5247	0.297373
712	118.147	105.497	0.892935	48.0027	57.4947	0.297416
713	118.089	105.442	0.8929	47.977	57.4649	0.297458
714	118.032	105.386	0.892865	47.9513	57.4351	0.297501
715	117.975	105.331	0.89283	47.9258	57.4056	0.297543
716	117.918	105.277	0.892796	47.9004	57.3761	0.297585
717	117.861	105.222	0.892761	47.8752	57.3468	0.297627
718	117.805	105.168	0.892727	47.85	57.3176	0.297668
719	117.749	105.114	0.892693	47.8249	57.2886	0.29771
720	117.693	105.06	0.892659	47.8	57.2596	0.297751
721	117.637	105.006	0.892626	47.775	57.2307	0.297793
722	117.581	104.952	0.892592	47.7502	57.2019	0.297835
723	117.526	104.899	0.892558	47.7254	57.1731	0.297877
724	117.47	104.845	0.892525	47.7007	57.1445	0.297919
725	117.415	104.792	0.892492	47.6761	57.1159	0.297961
726	117.36	104.739	0.892459	47.6515	57.0874	0.298003
727	117.305	104.686	0.892426	47.6271	57.0589	0.298045
728	117.25	104.633	0.892393	47.6027	57.0306	0.298087
729	117.196	104.581	0.89236	47.5783	57.0023	0.29813
730	117.141	104.528	0.892328	47.5541	56.9742	0.298172
731	117.087	104.476	0.892296	47.5299	56.9461	0.298214
732	117.032	104.424	0.892263	47.5058	56.918	0.298257
733	116.978	104.372	0.892231	47.4817	56.8901	0.298299
734	116.925	104.32	0.892199	47.4577	56.8622	0.298342
735	116.871	104.268	0.892167	47.4338	56.8344	0.298385
736	116.817	104.217	0.892136	47.41	56.8067	0.298427
737	116.764	104.165	0.892104	47.3863	56.7791	0.29847
738	116.71	104.114	0.892073	47.3626	56.7516	0.298513
739	116.657	104.063	0.892041	47.339	56.7241	0.298556
740	116.604	104.012	0.89201	47.3154	56.6967	0.298599
741	116.551	103.961	0.891979	47.292	56.6694	0.298641
742	116.499	103.911	0.891948	47.2686	56.6422	0.298684
743	116.446	103.86	0.891917	47.2452	56.615	0.298727
744	116.394	103.81	0.891887	47.222	56.588	0.29877
745	116.341	103.76	0.891856	47.1988	56.561	0.298813
746	116.289	103.71	0.891826	47.1757	56.5341	0.298857
747	116.237	103.66	0.891796	47.1527	56.5073	0.2989
748	116.186	103.61	0.891765	47.1297	56.4805	0.298943
749	116.134	103.561	0.891735	47.1068	56.4538	0.298986
750	116.082	103.511	0.891706	47.084	56.4273	0.299029
751	116.031	103.462	0.891676	47.0613	56.4008	0.299072
752	115.98	103.413	0.891646	47.0386	56.3744	0.299115
753	115.929	103.364	0.891617	47.0161	56.3482	0.299158
754	115.878	103.316	0.891587	46.9937	56.322	0.299201
755	115.828	103.267	0.891558	46.9713	56.296	0.299243
756	115.778	103.219	0.891529	46.9491	56.2701	0.299285
757	115.728	103.171	0.8915	46.927	56.2443	0.299327
758	115.678	103.124	0.891471	46.905	56.2186	0.299369
759	115.628	103.076	0.891442	46.883	56.1931	0.299411
760	115.579	103.029	0.891414	46.8612	56.1677	0.299452
761	115.53	102.982	0.891385	46.8395	56.1423	0.299494
762	115.481	102.935	0.891357	46.8179	56.1171	0.299535
763	115.433	102.888	0.891329	46.7964	56.0921	0.299576
764	115.384	102.842	0.891301	46.7749	56.0671	0.299616
765	115.336	102.796	0.891273	46.7536	56.0422	0.299657
766	115.288	102.75	0.891245	46.7324	56.0175	0.299697
767	115.24	102.704	0.891217	46.7112	55.9928	0.299738
768	115.193	102.658	0.89119	46.6901	55.9682	0.299778
769	115.145	102.613	0.891162	46.6691	55.9437	0.299818
770	115.098	102.567	0.891135	46.6481	55.9193	0.299859
771	115.05	102.522	0.891107	46.6272	55.8949	0.299899
772	115.003	102.477	0.89108	46.6064	55.8706	0.29994
773	114.956	102.432	0.891053	46.5856	55.8463	0.29998
774	114.909	102.387	0.891026	46.5649	55.8222	0.300021
775	114.862	102.342	0.890999	46.5442	55.7981	0.300062
776	114.816	102.298	0.890973	46.5237	55.774	0.300102
777	114.769	102.253	0.890946	46.5031	55.7501	0.300143
778	114.723	102.209	0.89092	46.4827	55.7262	0.300183
779	114.677	102.165	0.890893	46.4623	55.7024	0.300224
780	114.631	102.121	0.890867	46.442	55.6787	0.300264
781	114.585	102.077	0.890841	46.4217	55.655	0.300305
782	114.539	102.033	0.890815	46.4015	55.6314	0.300346
783	114.493	101.989	0.890789	46.3814	55.6079	0.300386
784	114.448	101.946	0.890763	46.3613	55.5844	0.300427
785	114.402	101.902	0.890737	46.3413	55.5611	0.300468
786	114.357	101.859	0.890712	46.3214	55.5378	0.300508
787	114.312	101.816	0.890686	46.3015	55.5145	0.300549
788	114.267	101.773	0.890661	46.2817	55.4914	0.300589
789	114.222	101.73	0.890635	46.2619	55.4683	0.30063
790	114.177	101.687	0.89061	46.2422	55.4453	0.30067
791	114.133	101.645	0.890585	46.2226	55.4223	0.300711
792	114.088	101.602	0.89056	46.203	55.3994	0.300752
793	114.044	101.56	0.890535	46.1835	55.3766	0.300792
794	114	101.518	0.890511	46.1641	55.3539	0.300833
795	113.956	101.476	0.890486	46.1447	55.3313	0.300873
796	113.912	101.434	0.890461	46.1254	55.3087	0.300914
797	113.868	101.392	0.890437	46.1062	55.2861	0.300954
798	113.824	101.351	0.890413	46.087	55.2637	0.300994
799	113.781	101.309	0.890388	46.0679	55.2413	0.301035
800	113.738	101.268	0.890364	46.0488	55.219	0.301075
801	113.694	101.227	0.89034	46.0298	55.1968	0.301115
802	113.651	101.186	0.890316	46.0109	55.1747	0.301156
803	113.608	101.145	0.890292	45.9921	55.1527	0.301196
804	113.566	101.104	0.890269	45.9734	55.1307	0.301235
805	113.523	101.064	0.890245	45.9547	55.1089	0.301275
806	113.481	101.023	0.890222	45.9361	55.0871	0.301315
807	113.439	100.983	0.890198	45.9176	55.0655	0.301354
808	113.397	100.943	0.890175	45.8992	55.0439	0.301393
809	113.355	100.903	0.890152	45.8809	55.0225	0.301432
810	113.314	100.864	0.890129	45.8626	55.0011	0.301471
811	113.272	100.824	0.890106	45.8445	54.9798	0.30151
812	113.231	100.785	0.890083	45.8264	54.9586	0.301548
813	113.19	100.746	0.89006	45.8084	54.9375	0.301587
814	113.149	100.707	0.890037	45.7904	54.9165	0.301625
815	113.108	100.668	0.890014	45.7725	54.8956	0.301663
816	113.068	100.629	0.889992	45.7547	54.8747	0.301702
817	113.027	100.591	0.889969	45.7369	54.8539	0.30174
818	112.987	100.552	0.889947	45.7192	54.8332	0.301778
819	112.947	100.514	0.889925	45.7016	54.8125	0.301816
820	112.907	100.476	0.889903	45.684	54.7919	0.301855
821	112.867	100.438	0.889881	45.6664	54.7713	0.301893
822	112.827	100.4	0.889859	45.6489	54.7508	0.301931
823	112.787	100.362	0.889837	45.6315	54.7304	0.301969
824	112.747	100.324	0.889815	45.6141	54.71	0.302007
825	112.708	100.287	0.889793	45.5968	54.6897	0.302045
826	112.668	100.249	0.889772	45.5796	54.6695	0.302083
827	112.629	100.212	0.88975	45.5623	54.6493	0.302121
828	112.59	100.174	0.889729	45.5452	54.6292	0.302159
829	112.551	100.137	0.889708	45.5281	54.6091	0.302197
830	112.512	100.1	0.889686	45.5111	54.5891	0.302235
831	112.473	100.063	0.889665	45.4941	54.5692	0.302273
832	112.434	100.027	0.889644	45.4772	54.5494	0.302311
833	112.396	99.9899	0.889623	45.4603	54.5296	0.302349
834	112.357	99.9533	0.889602	45.4435	54.5098	0.302387
835	112.319	99.9169	0.889582	45.4267	54.4902	0.302425
836	112.281	99.8806	0.889561	45.41	54.4706	0.302462
837	112.243	99.8444	0.88954	45.3934	54.451	0.3025
838	112.205	99.8084	0.88952	45.3768	54.4316	0.302538
839	112.167	99.7724	0.889499	45.3602	54.4122	0.302575
840	112.129	99.7366	0.889479	45.3438	54.3928	0.302613
841	112.092	99.7009	0.889459	45.3273	54.3735	0.30265
842	112.054	99.6653	0.889438	45.311	54.3543	0.302688
843	112.017	99.6298	0.889418	45.2947	54.3352	0.302725
844	111.98	99.5945	0.889398	45.2784	54.3161	0.302763
845	111.942	99.5592	0.889378	45.2622	54.297	0.3028
846	111.906	99.5241	0.889359	45.2461	54.2781	0.302837
847	111.869	99.4892	0.889339	45.23	54.2592	0.302875
848	111.832	99.4543	0.889319	45.2139	54.2403	0.302912
849	111.795	99.4195	0.8893	45.198	54.2216	0.302949
850	111.759	99.3849	0.88928	45.182	54.2029	0.302986
851	111.722	99.3504	0.889261	45.1662	54.1842	0.303023
852	111.686	99.3161	0.889241	45.1504	54.1657	0.30306
853	111.65	99.2819	0.889222	45.1347	54.1472	0.303096
854	111.614	99.2479	0.889203	45.119	54.1288	0.303133
855	111.579	99.214	0.889184	45.1035	54.1106	0.303169
856	111.543	99.1803	0.889165	45.088	54.0924	0.303205
857	111.508	99.1468	0.889146	45.0726	54.0742	0.303241
858	111.473	99.1134	0.889127	45.0572	54.0562	0.303276
859	111.438	99.0802	0.889109	45.042	54.0383	0.303312
860	111.403	99.0472	0.88909	45.0268	54.0204	0.303347
861	111.368	99.0143	0.889071	45.0116	54.0026	0.303382
862	111.334	98.9815	0.889053	44.9966	53.9849	0.303417
863	111.299	98.9489	0.889034	44.9816	53.9673	0.303452
864	111.265	98.9163	0.889016	44.9666	53.9497	0.303487
865	111.231	98.8838	0.888998	44.9517	53.9322	0.303522
866	111.197	98.8514	0.888979	44.9368	53.9147	0.303557
867	111.162	98.8191	0.888961	44.9219	53.8972	0.303592
868	111.128	98.7869	0.888943	44.9071	53.8798	0.303627
869	111.095	98.7548	0.888925	44.8924	53.8624	0.303662
870	111.061	98.7228	0.888907	44.8777	53.8451	0.303697
871	111.027	98.6909	0.88889	44.863	53.8279	0.303732
872	110.994	98.659	0.888872	44.8484	53.8107	0.303766
873	110.96	98.6273	0.888854	44.8338	53.7935	0.303801
874	110.927	98.5956	0.888837	44.8192	53.7764	0.303836
875	110.893	98.5641	0.888819	44.8047	53.7593	0.303871
876	110.86	98.5326	0.888802	44.7903	53.7423	0.303906
877	110.827	98.5012	0.888784	44.7759	53.7254	0.303941
878	110.794	98.4699	0.888767	44.7615	53.7084	0.303976
879	110.761	98.4387	0.88875	44.7472	53.6916	0.304011
880	110.728	98.4076	0.888733	44.7329	53.6748	0.304046
881	110.695	98.3766	0.888715	44.7186	53.658	0.304081
882	110.663	98.3457	0.888698	44.7044	53.6412	0.304116
883	110.63	98.3148	0.888682	44.6903	53.6246	0.304151
884	110.597	98.2841	0.888665	44.6761	53.6079	0.304186
885	110.565	98.2534	0.888648	44.6621	53.5914	0.304221
886	110.533	98.2229	0.888631	44.648	53.5748	0.304255
887	110.501	98.1924	0.888614	44.634	53.5583	0.30429
888	110.468	98.162	0.888598	44.6201	53.5419	0.304325
889	110.436	98.1317	0.888581	44.6062	53.5255	0.30436
890	110.404	98.1015	0.888565	44.5923	53.5092	0.304395
891	110.373	98.0714	0.888549	44.5785	53.4929	0.304429
892	110.341	98.0414	0.888532	44.5647	53.4766	0.304464
893	110.309	98.0114	0.888516	44.551	53.4604	0.304499
894	110.278	97.9816	0.8885	44.5373	53.4443	0.304534
895	110.246	97.9518	0.888484	44.5236	53.4282	0.304568
896	110.215	97.9222	0.888468	44.51	53.4121	0.304603
897	110.183	97.8926	0.888452	44.4965	53.3961	0.304638
898	110.152	97.8631	0.888436	44.4829	53.3802	0.304672
899	110.121	97.8337	0.88842	44.4695	53.3643	0.304707
900	110.09	97.8044	0.888404	44.456	53.3484	0.304741
901	110.059	97.7753	0.888389	44.4426	53.3326	0.304776
902	110.028	97.7462	0.888373	44.4293	53.3169	0.30481
903	109.998	97.7173	0.888358	44.416	53.3012	0.304844
904	109.967	97.6885	0.888342	44.4028	53.2857	0.304878
905	109.937	97.6598	0.888327	44.3897	53.2701	0.304912
906	109.907	97.6313	0.888311	44.3766	53.2547	0.304946
907	109.876	97.6029	0.888296	44.3635	53.2393	0.304979
908	109.847	97.5746	0.888281	44.3506	53.224	0.305013
909	109.817	97.5465	0.888266	44.3377	53.2088	0.305046
910	109.787	97.5184	0.888251	44.3248	53.1936	0.305079
911	109.758	97.4905	0.888236	44.312	53.1785	0.305112
912	109.728	97.4627	0.888221	44.2993	53.1635	0.305145
913	109.699	97.435	0.888206	44.2865	53.1484	0.305178
914	109.669	97.4073	0.888191	44.2739	53.1335	0.305211
915	109.64	97.3798	0.888176	44.2612	53.1186	0.305243
916	109.611	97.3523	0.888162	44.2486	53.1037	0.305276
917	109.582	97.325	0.888147	44.2361	53.0889	0.305309
918	109.553	97.2977	0.888132	44.2236	53.0741	0.305342
919	109.524	97.2705	0.888118	44.2111	53.0594	0.305374
920	109.496	97.2434	0.888103	44.1987	53.0447	0.305407
921	109.467	97.2164	0.888089	44.1863	53.0301	0.305439
922	109.438	97.1894	0.888075	44.1739	53.0155	0.305472
923	109.41	97.1626	0.88806	44.1616	53.001	0.305504
924	109.382	97.1359	0.888046	44.1494	52.9865	0.305537
925	109.353	97.1092	0.888032	44.1371	52.9721	0.305569
926	109.325	97.0826	0.888018	44.125	52.9577	0.305601
927	109.297	97.0562	0.888004	44.1128	52.9433	0.305634
928	109.269	97.0298	0.88799	44.1007	52.929	0.305666
929	109.241	97.0035	0.887976	44.0887	52.9148	0.305698
930	109.213	96.9773	0.887962	44.0767	52.9006	0.30573
931	109.186	96.9511	0.887948	44.0647	52.8864	0.305762
932	109.158	96.9251	0.887935	44.0528	52.8723	0.305794
933	109.13	96.8992	0.887921	44.0409	52.8583	0.305826
934	109.103	96.8733	0.887907	44.029	52.8443	0.305858
935	109.076	96.8475	0.887894	44.0172	52.8303	0.30589
936	109.048	96.8219	0.88788	44.0054	52.8164	0.305921
937	109.021	96.7963	0.887867	43.9937	52.8026	0.305953
938	108.994	96.7708	0.887853	43.982	52.7887	0.305985
939	108.967	96.7454	0.88784	43.9704	52.775	0.306016
940	108.94	96.7201	0.887827	43.9588	52.7613	0.306048
941	108.913	96.6948	0.887814	43.9472	52.7476	0.306079
942	108.887	96.6697	0.887801	43.9357	52.734	0.30611
943	108.86	96.6446	0.887787	43.9242	52.7204	0.306142
944	108.834	96.6197	0.887774	43.9128	52.7069	0.306173
945	108.807	96.5948	0.887761	43.9014	52.6934	0.306204
946	108.781	96.57	0.887748	43.8901	52.68	0.306235
947	108.755	96.5453	0.887736	43.8787	52.6666	0.306266
948	108.728	96.5207	0.887723	43.8675	52.6532	0.306297
949	108.702	96.4962	0.88771	43.8562	52.64	0.306328
950	108.676	96.4718	0.887697	43.8451	52.6267	0.306359
951	108.651	96.4474	0.887685	43.8339	52.6135	0.30639
952	108.625	96.4232	0.887672	43.8228	52.6004	0.30642
953	108.599	96.3991	0.88766	43.8118	52.5873	0.306451
954	108.574	96.3751	0.887647	43.8008	52.5743	0.306481
955	108.548	96.3511	0.887635	43.7898	52.5613	0.306511
956	108.523	96.3273	0.887622	43.7789	52.5484	0.306542
957	108.498	96.3036	0.88761	43.768	52.5356	0.306572
958	108.473	96.28	0.887598	43.7572	52.5228	0.306601
959	108.448	96.2565	0.887585	43.7464	52.51	0.306631
960	108.423	96.233	0.887573	43.7357	52.4973	0.306661
961	108.398	96.2096	0.887561	43.725	52.4846	0.306691
962	108.373	96.1863	0.887549	43.7143	52.472	0.306721
963	108.348	96.163	0.887537	43.7036	52.4594	0.30675
964	108.323	96.1398	0.887525	43.693	52.4468	0.30678
965	108.299	96.1167	0.887513	43.6824	52.4342	0.30681
966	108.274	96.0936	0.887501	43.6718	52.4217	0.30684
967	108.25	96.0705	0.88749	43.6613	52.4092	0.30687
968	108.225	96.0476	0.887478	43.6508	52.3968	0.306899
969	108.201	96.0247	0.887466	43.6403	52.3844	0.306929
970	108.177	96.0018	0.887455	43.6299	52.372	0.306959
971	108.152	95.979	0.887443	43.6194	52.3596	0.306989
972	108.128	95.9563	0.887431	43.609	52.3473	0.307019
973	108.104	95.9337	0.88742	43.5987	52.335	0.307049
974	108.08	95.9111	0.887409	43.5883	52.3227	0.307078
975	108.056	95.8885	0.887397	43.578	52.3105	0.307108
976	108.032	95.866	0.887386	43.5677	52.2983	0.307138
977	108.008	95.8436	0.887375	43.5575	52.2862	0.307168
978	107.984	95.8213	0.887363	43.5472	52.274	0.307198
979	107.96	95.799	0.887352	43.537	52.2619	0.307227
980	107.937	95.7767	0.887341	43.5269	52.2499	0.307257
981	107.913	95.7546	0.88733	43.5167	52.2378	0.307287
982	107.89	95.7325	0.887319	43.5066	52.2258	0.307317
983	107.866	95.7104	0.887308	43.4965	52.2139	0.307347
984	107.843	95.6884	0.887297	43.4865	52.2019	0.307376
985	107.819	95.6665	0.887286	43.4764	52.19	0.307406
986	107.796	95.6446	0.887275	43.4665	52.1782	0.307436
987	107.773	95.6228	0.887265	43.4565	52.1663	0.307466
988	107.749	95.6011	0.887254	43.4465	52.1545	0.307495
989	107.726	95.5794	0.887243	43.4366	52.1428	0.307525
990	107.703	95.5578	0.887233	43.4267	52.131	0.307555
991	107.68	95.5362	0.887222	43.4169	52.1193	0.307585
992	107.657	95.5147	0.887211	43.4071	52.1076	0.307614
993	107.634	95.4933	0.887201	43.3973	52.096	0.307644
994	107.611	95.4719	0.88719	43.3875	52.0844	0.307674
995	107.589	95.4505	0.88718	43.3777	52.0728	0.307703
996	107.566	95.4293	0.88717	43.368	52.0613	0.307733
997	107.543	95.4081	0.887159	43.3583	52.0498	0.307763
998	107.521	95.3869	0.887149	43.3487	52.0383	0.307792
999	107.498	95.3659	0.887139	43.339	52.0268	0.307822
1000	107.476	95.3448	0.887129	43.3294	52.0154	0.307851
