#Total-Energy(MeV)  Deposited-Energy(MeV)  Light-Output(Gamma-MeV)  Ratio  Nf(Gamma-Mev)  Ns(Gamma-MeV)  Ratio(delta electrons)
1	1	1.3517	1.3517	1.04821	0.303489	0
2	2	2.81605	1.40803	2.08225	0.733801	0
3	3	4.29552	1.43184	3.06086	1.23466	0
4	4	5.7673	1.44182	4.00476	1.76254	0
5	5	7.24645	1.44929	4.91853	2.32792	0
6	6	8.66162	1.4436	5.77371	2.88791	0.00149734
7	7	10.0776	1.43965	6.60715	3.47043	0.00622778
8	8	11.4933	1.43666	7.4214	4.07189	0.012329
9	9	12.8339	1.42599	8.18503	4.64889	0.0188986
10	10	14.2002	1.42002	8.94728	5.25287	0.0255008
11	11	15.5292	1.41174	9.68179	5.84737	0.0319003
12	12	16.8343	1.40286	10.3932	6.44112	0.0380231
13	13	18.1466	1.39589	11.106	7.04061	0.0438942
14	14	19.4353	1.38824	11.7984	7.63696	0.0494351
15	15	20.7023	1.38016	12.4716	8.23071	0.0546897
16	16	21.9775	1.3736	13.1497	8.82787	0.0596679
17	17	23.2298	1.36646	13.8095	9.42039	0.0643675
18	18	24.468	1.35934	14.4555	10.0126	0.0688311
19	19	25.7016	1.35272	15.1011	10.6005	0.0730551
20	20	26.9225	1.34613	15.7337	11.1888	0.0770669
21	21	28.1675	1.34131	16.377	11.7905	0.0808686
22	22	29.3792	1.33542	17.001	12.3782	0.0844591
23	23	30.5576	1.32859	17.6079	12.9497	0.0878729
24	24	31.7671	1.32363	18.2266	13.5405	0.0911368
25	25	32.9474	1.3179	18.8288	14.1186	0.0942791
26	26	34.1313	1.31274	19.4259	14.7054	0.0972906
27	27	35.3086	1.30772	20.0255	15.2831	0.100174
28	28	36.4862	1.30308	20.6218	15.8644	0.102944
29	29	37.6547	1.29844	21.2091	16.4456	0.105596
30	30	38.8085	1.29362	21.7917	17.0169	0.108151
31	31	39.9542	1.28884	22.3661	17.5881	0.110601
32	32	41.1185	1.28495	22.9485	18.17	0.112952
33	33	42.2306	1.27971	23.506	18.7245	0.115215
34	34	43.3694	1.27557	24.0738	19.2956	0.1174
35	35	44.5336	1.27239	24.654	19.8796	0.119519
36	36	45.6687	1.26857	25.2176	20.4511	0.121567
37	37	46.7699	1.26405	25.7666	21.0033	0.123543
38	38	47.8996	1.26052	26.3266	21.5731	0.125451
39	39	49.0053	1.25655	26.8711	22.1342	0.1273
40	40	50.1247	1.25312	27.4264	22.6983	0.1291
41	41	51.2379	1.24971	27.9732	23.2648	0.130845
42	42	52.3422	1.24624	28.5191	23.8232	0.132535
43	43	53.4627	1.24332	29.0696	24.3932	0.134172
44	44	54.5483	1.23973	29.6033	24.9451	0.135768
45	45	55.66	1.23689	30.1481	25.512	0.137321
46	46	56.7455	1.2336	30.6815	26.0639	0.138834
47	47	57.8418	1.23068	31.2162	26.6256	0.140301
48	48	58.9294	1.2277	31.7502	27.1792	0.14173
49	49	60.0191	1.22488	32.2803	27.7388	0.143121
50	50	61.1029	1.22206	32.8115	28.2914	0.144483
51	51	62.1821	1.21926	33.335	28.8471	0.145809
52	52	63.2641	1.21662	33.8643	29.3998	0.147102
53	53	64.3464	1.21408	34.3887	29.9577	0.14836
54	54	65.4117	1.21133	34.9074	30.5043	0.149592
55	55	66.4997	1.20909	35.4329	31.0669	0.150796
56	56	67.556	1.20636	35.9467	31.6093	0.151975
57	57	68.6504	1.20439	36.4786	32.1718	0.153124
58	58	69.7209	1.20209	36.996	32.725	0.154246
59	59	70.7575	1.19928	37.4999	33.2577	0.155347
60	60	71.8222	1.19704	38.0147	33.8074	0.156424
61	61	72.8836	1.19481	38.5226	34.361	0.157478
62	62	73.9497	1.19274	39.0384	34.9113	0.15851
63	63	74.9872	1.19027	39.5418	35.4454	0.159521
64	64	76.037	1.18808	40.0462	35.9908	0.16051
65	65	77.1055	1.18624	40.563	36.5425	0.161483
66	66	78.1425	1.18398	41.0616	37.0809	0.162435
67	67	79.2047	1.18216	41.5729	37.6318	0.163369
68	68	80.2329	1.1799	42.0653	38.1675	0.164283
69	69	81.2819	1.178	42.5706	38.7113	0.165181
70	70	82.3419	1.17631	43.0763	39.2656	0.166063
71	71	83.3796	1.17436	43.5736	39.806	0.16693
72	72	84.4074	1.17233	44.0702	40.3372	0.167781
73	73	85.4397	1.17041	44.5634	40.8763	0.168615
74	74	86.4936	1.16883	45.0696	41.424	0.169435
75	75	87.5137	1.16685	45.5571	41.9566	0.170243
76	76	88.5586	1.16524	46.0577	42.5009	0.171036
77	77	89.5795	1.16337	46.5427	43.0368	0.171815
78	78	90.6084	1.16165	47.0343	43.5741	0.17258
79	79	91.6556	1.1602	47.5371	44.1185	0.173334
80	80	92.6762	1.15845	48.0244	44.6518	0.174076
81	81	93.7214	1.15705	48.5214	45.2001	0.174806
82	82	94.7288	1.15523	49.0033	45.7256	0.175524
83	83	95.7604	1.15374	49.4945	46.2659	0.17623
84	84	96.7623	1.15193	49.9692	46.7931	0.176924
85	85	97.7857	1.15042	50.4563	47.3294	0.177609
86	86	98.8159	1.14902	50.9495	47.8664	0.178285
87	87	99.8221	1.14738	51.4264	48.3957	0.178948
88	88	100.848	1.146	51.9156	48.9322	0.179602
89	89	101.876	1.14468	52.4034	49.473	0.180245
90	90	102.894	1.14327	52.8871	50.0069	0.18088
91	91	103.891	1.14166	53.3608	50.5301	0.181508
92	92	104.898	1.1402	53.8364	51.0618	0.182124
93	93	105.913	1.13885	54.3199	51.5931	0.182732
94	94	106.945	1.13772	54.8071	52.1382	0.183331
95	95	107.959	1.13641	55.2881	52.6708	0.183923
96	96	108.939	1.13478	55.7534	53.1856	0.184508
97	97	109.962	1.13363	56.2379	53.7244	0.185083
98	98	110.953	1.13217	56.7058	54.247	0.185651
99	99	111.984	1.13115	57.1957	54.788	0.186211
100	100	112.984	1.12984	57.6694	55.3146	0.186765
101	101	113.989	1.12861	58.1419	55.8474	0.18731
102	102	114.983	1.12729	58.615	56.3681	0.187845
103	103	115.98	1.12602	59.0861	56.8939	0.188371
104	104	116.997	1.12497	59.5658	57.4309	0.188888
105	105	117.972	1.12354	60.0255	57.9465	0.189397
106	106	118.971	1.12237	60.4961	58.475	0.189897
107	107	119.977	1.12128	60.9735	59.0034	0.190391
108	108	120.991	1.12029	61.4518	59.5394	0.190876
109	109	121.989	1.11917	61.9201	60.0691	0.191355
110	110	122.96	1.11782	62.3782	60.5818	0.191828
111	111	123.987	1.117	62.8634	61.1234	0.192294
112	112	124.98	1.11589	63.3317	61.6482	0.192755
113	113	125.947	1.11458	63.7857	62.1613	0.19321
114	114	126.968	1.11375	64.2679	62.7	0.19366
115	115	127.959	1.11269	64.7343	63.2252	0.194106
116	116	128.921	1.11139	65.1882	63.7331	0.194547
117	117	129.91	1.11035	65.6516	64.2589	0.194984
118	118	130.902	1.10934	66.1203	64.7816	0.195417
119	119	131.907	1.10846	66.5901	65.3171	0.195846
120	120	132.899	1.10749	67.0569	65.8419	0.196272
121	121	133.863	1.1063	67.5117	66.3509	0.196695
122	122	134.855	1.10537	67.9765	66.8784	0.197115
123	123	135.833	1.10433	68.4369	67.3959	0.197532
124	124	136.849	1.10362	68.9138	67.9356	0.197947
125	125	137.829	1.10263	69.3732	68.4556	0.19836
126	126	138.783	1.10146	69.8221	68.9613	0.198769
127	127	139.781	1.10064	70.2877	69.4938	0.199171
128	128	140.769	1.09976	70.7517	70.017	0.199569
129	129	141.727	1.09866	71.2018	70.5249	0.199962
130	130	142.737	1.09798	71.6769	71.0605	0.200349
131	131	143.71	1.09703	72.1339	71.5765	0.200731
132	132	144.701	1.09622	72.5962	72.1044	0.201108
133	133	145.649	1.0951	73.0419	72.6067	0.201482
134	134	146.622	1.09419	73.4957	73.1263	0.201851
135	135	147.601	1.09334	73.9561	73.6452	0.202216
136	136	148.606	1.09269	74.4262	74.1796	0.202577
137	137	149.569	1.09174	74.8781	74.6904	0.202935
138	138	150.551	1.09095	75.3373	75.2133	0.203289
139	139	151.506	1.08997	75.7816	75.7241	0.20364
140	140	152.507	1.08933	76.2508	76.256	0.203987
141	141	153.472	1.08845	76.7038	76.7683	0.204332
142	142	154.431	1.08754	77.1529	77.2784	0.204675
143	143	155.394	1.08667	77.6008	77.7929	0.205014
144	144	156.371	1.08591	78.0594	78.312	0.205351
145	145	157.368	1.0853	78.5236	78.8448	0.205685
146	146	158.334	1.08448	78.9759	79.3581	0.206018
147	147	159.297	1.08366	79.4232	79.8742	0.206348
148	148	160.258	1.08283	79.8755	80.3828	0.206677
149	149	161.222	1.08203	80.3254	80.8969	0.207004
150	150	162.209	1.0814	80.7853	81.424	0.207328
151	151	163.153	1.08048	81.226	81.9271	0.207651
152	152	164.116	1.07971	81.674	82.4419	0.20797
153	153	165.09	1.07902	82.1303	82.9599	0.208285
154	154	166.081	1.07845	82.5904	83.4903	0.208596
155	155	167.034	1.07764	83.0367	83.997	0.208905
156	156	168	1.07692	83.487	84.5127	0.20921
157	157	168.963	1.0762	83.9329	85.0305	0.209512
158	158	169.921	1.07545	84.383	85.5383	0.209812
159	159	170.877	1.0747	84.8282	86.049	0.210108
160	160	171.852	1.07407	85.2823	86.5692	0.210402
161	161	172.807	1.07334	85.7252	87.082	0.210693
162	162	173.79	1.07278	86.1837	87.6062	0.210981
163	163	174.75	1.07209	86.6303	88.1198	0.211268
164	164	175.68	1.07122	87.0636	88.6166	0.211552
165	165	176.663	1.07069	87.5198	89.1434	0.211834
166	166	177.628	1.07005	87.9696	89.6584	0.212114
167	167	178.56	1.06922	88.4032	90.1568	0.212392
168	168	179.55	1.06875	88.8653	90.6849	0.212668
169	169	180.504	1.06807	89.3097	91.1943	0.212943
170	170	181.457	1.06739	89.7498	91.7068	0.213215
171	171	182.406	1.0667	90.1949	92.211	0.213487
172	172	183.355	1.06602	90.6357	92.7196	0.213756
173	173	184.324	1.06546	91.0869	93.2375	0.214024
174	174	185.273	1.06478	91.5249	93.7477	0.214291
175	175	186.242	1.06424	91.9747	94.2672	0.214556
176	176	187.184	1.06354	92.4131	94.7707	0.21482
177	177	188.142	1.06295	92.8609	95.2809	0.215082
178	178	189.087	1.06229	93.2968	95.7901	0.21534
179	179	190.051	1.06174	93.7452	96.3055	0.215597
180	180	190.992	1.06107	94.1827	96.8097	0.215851
181	181	191.97	1.06061	94.6385	97.3317	0.216103
182	182	192.905	1.05992	95.0724	97.8324	0.216353
183	183	193.856	1.05932	95.5136	98.3422	0.2166
184	184	194.823	1.05882	95.9631	98.8598	0.216846
185	185	195.762	1.05817	96.3959	99.3658	0.21709
186	186	196.74	1.05774	96.8511	99.8893	0.217331
187	187	197.681	1.05712	97.2861	100.395	0.217572
188	188	198.609	1.05643	97.7182	100.891	0.21781
189	189	199.594	1.05605	98.1749	101.419	0.218047
190	190	200.538	1.05546	98.6134	101.924	0.218283
191	191	201.488	1.05491	99.0525	102.435	0.218516
192	192	202.412	1.05423	99.4826	102.929	0.218749
193	193	203.366	1.05371	99.9233	103.443	0.21898
194	194	204.313	1.05316	100.362	103.951	0.21921
195	195	205.26	1.05261	100.803	104.457	0.219438
196	196	206.214	1.05211	101.241	104.973	0.219665
197	197	207.183	1.05169	101.693	105.491	0.219891
198	198	208.111	1.05106	102.123	105.988	0.220116
199	199	209.055	1.05053	102.562	106.493	0.220341
200	200	209.989	1.04994	102.993	106.996	0.220564
201	201	210.936	1.04943	103.432	107.504	0.220785
202	202	211.898	1.049	103.878	108.02	0.221005
203	203	212.83	1.04842	104.307	108.523	0.221223
204	204	213.804	1.04806	104.759	109.045	0.221439
205	205	214.749	1.04755	105.196	109.553	0.221654
206	206	215.666	1.04692	105.62	110.046	0.221867
207	207	216.62	1.04647	106.064	110.556	0.222079
208	208	217.547	1.0459	106.492	111.055	0.222289
209	209	218.489	1.0454	106.927	111.562	0.222497
210	210	219.444	1.04497	107.371	112.073	0.222704
211	211	220.394	1.04452	107.806	112.588	0.222909
212	212	221.341	1.04406	108.248	113.093	0.223114
213	213	222.281	1.04357	108.682	113.598	0.223317
214	214	223.236	1.04316	109.122	114.113	0.223519
215	215	224.145	1.04254	109.544	114.601	0.22372
216	216	225.093	1.0421	109.98	115.113	0.223919
217	217	226.035	1.04164	110.416	115.619	0.224118
218	218	226.967	1.04113	110.848	116.119	0.224315
219	219	227.937	1.04081	111.296	116.641	0.224511
220	220	228.864	1.04029	111.726	117.138	0.224707
221	221	229.806	1.03985	112.161	117.645	0.224901
222	222	230.744	1.03939	112.591	118.153	0.225095
223	223	231.676	1.0389	113.025	118.651	0.225288
224	224	232.605	1.03841	113.453	119.151	0.225479
225	225	233.549	1.038	113.89	119.659	0.225671
226	226	234.509	1.03765	114.332	120.177	0.22586
227	227	235.42	1.03709	114.754	120.666	0.226049
228	228	236.353	1.03664	115.182	121.171	0.226236
229	229	237.29	1.0362	115.615	121.675	0.226422
230	230	238.234	1.0358	116.053	122.181	0.226607
231	231	239.197	1.03549	116.496	122.701	0.22679
232	232	240.116	1.03498	116.922	123.194	0.226973
233	233	241.046	1.03453	117.351	123.695	0.227154
234	234	241.991	1.03415	117.787	124.204	0.227334
235	235	242.925	1.03372	118.214	124.711	0.227512
236	236	243.859	1.0333	118.649	125.209	0.22769
237	237	244.783	1.03284	119.075	125.708	0.227867
238	238	245.72	1.03244	119.508	126.212	0.228043
239	239	246.673	1.0321	119.947	126.726	0.228218
240	240	247.582	1.03159	120.364	127.218	0.228391
241	241	248.533	1.03126	120.801	127.732	0.228564
242	242	249.47	1.03087	121.234	128.236	0.228736
243	243	250.384	1.03039	121.656	128.728	0.228908
244	244	251.337	1.03007	122.098	129.239	0.229078
245	245	252.252	1.0296	122.519	129.733	0.229248
246	246	253.183	1.0292	122.947	130.236	0.229417
247	247	254.124	1.02884	123.383	130.741	0.229585
248	248	255.082	1.02856	123.822	131.26	0.229752
249	249	255.993	1.02809	124.245	131.749	0.229919
250	250	256.919	1.02768	124.671	132.248	0.230085
251	251	257.86	1.02733	125.104	132.755	0.230251
252	252	258.805	1.027	125.538	133.267	0.230415
253	253	259.714	1.02654	125.959	133.755	0.230578
254	254	260.636	1.02613	126.381	134.256	0.23074
255	255	261.569	1.02576	126.81	134.759	0.230901
256	256	262.499	1.02539	127.24	135.259	0.231062
257	257	263.452	1.0251	127.68	135.772	0.231221
258	258	264.358	1.02464	128.096	136.262	0.231379
259	259	265.301	1.02433	128.53	136.771	0.231537
260	260	266.23	1.02396	128.958	137.273	0.231693
261	261	267.147	1.02355	129.38	137.767	0.231849
262	262	268.1	1.02328	129.82	138.28	0.232005
263	263	269.007	1.02284	130.237	138.77	0.232159
264	264	269.933	1.02247	130.662	139.271	0.232312
265	265	270.862	1.02212	131.09	139.772	0.232465
266	266	271.806	1.02183	131.526	140.279	0.232617
267	267	272.73	1.02146	131.949	140.781	0.232769
268	268	273.676	1.02118	132.386	141.29	0.232919
269	269	274.6	1.02082	132.811	141.788	0.23307
270	270	275.532	1.02049	133.239	142.293	0.233219
271	271	276.428	1.02003	133.651	142.777	0.233368
272	272	277.387	1.01981	134.093	143.295	0.233516
273	273	278.307	1.01944	134.517	143.79	0.233664
274	274	279.237	1.01911	134.944	144.293	0.233811
275	275	280.148	1.01872	135.362	144.786	0.233958
276	276	281.075	1.01839	135.791	145.284	0.234104
277	277	281.986	1.018	136.207	145.779	0.234249
278	278	282.919	1.0177	136.636	146.283	0.234393
279	279	283.839	1.01734	137.058	146.78	0.234537
280	280	284.769	1.01703	137.489	147.28	0.23468
281	281	285.722	1.01681	137.926	147.797	0.234822
282	282	286.626	1.0164	138.343	148.283	0.234963
283	283	287.541	1.01605	138.763	148.778	0.235104
284	284	288.468	1.01573	139.189	149.279	0.235244
285	285	289.407	1.01546	139.621	149.786	0.235383
286	286	290.322	1.01511	140.039	150.282	0.235522
287	287	291.259	1.01484	140.472	150.787	0.23566
288	288	292.173	1.01449	140.892	151.28	0.235797
289	289	293.098	1.01418	141.318	151.781	0.235934
290	290	294.036	1.01392	141.747	152.289	0.23607
291	291	294.928	1.0135	142.156	152.772	0.236206
292	292	295.886	1.01331	142.597	153.289	0.236341
293	293	296.8	1.01297	143.018	153.782	0.236476
294	294	297.725	1.01267	143.442	154.283	0.23661
295	295	298.644	1.01235	143.865	154.779	0.236743
296	296	299.551	1.012	144.282	155.269	0.236876
297	297	300.468	1.01168	144.7	155.768	0.237009
298	298	301.398	1.0114	145.125	156.273	0.237141
299	299	302.32	1.0111	145.551	156.769	0.237273
300	300	303.232	1.01077	145.972	157.261	0.237404
301	301	304.182	1.01057	146.407	157.775	0.237535
302	302	305.081	1.0102	146.821	158.26	0.237665
303	303	305.993	1.00988	147.238	158.755	0.237794
304	304	306.913	1.00958	147.66	159.254	0.237922
305	305	307.837	1.0093	148.085	159.752	0.23805
306	306	308.776	1.00907	148.517	160.258	0.238177
307	307	309.684	1.00874	148.932	160.752	0.238303
308	308	310.621	1.00851	149.364	161.257	0.238428
309	309	311.528	1.00818	149.781	161.747	0.238553
310	310	312.445	1.00789	150.202	162.244	0.238677
311	311	313.374	1.00763	150.628	162.746	0.238801
312	312	314.309	1.0074	151.055	163.254	0.238924
313	313	315.198	1.00702	151.464	163.734	0.239046
314	314	316.128	1.00678	151.887	164.241	0.239168
314.1	314.1	316.208	1.00671	151.925	164.283	0.23918
314.2	314.2	316.3	1.00668	151.969	164.331	0.239192
314.3	314.3	316.402	1.00669	152.017	164.385	0.239204
314.4	314.4	316.506	1.0067	152.064	164.441	0.239216
314.5	314.5	316.608	1.0067	152.11	164.498	0.239228
314.6	314.6	316.682	1.00662	152.144	164.538	0.23924
315	315	317.063	1.00655	152.319	164.744	0.239289
316	316	317.981	1.00627	152.741	165.24	0.239409
317	317	318.901	1.006	153.162	165.74	0.239529
318	318	319.789	1.00563	153.569	166.221	0.239649
319	319	320.734	1.00544	154.004	166.73	0.239767
320	320	321.631	1.0051	154.415	167.216	0.239886
321	321	322.545	1.00481	154.832	167.713	0.240003
322	322	323.463	1.00454	155.253	168.209	0.240121
323	323	324.387	1.00429	155.679	168.708	0.240238
324	324	325.327	1.0041	156.11	169.217	0.240354
325	325	326.217	1.00374	156.517	169.7	0.24047
326	326	327.16	1.00356	156.952	170.209	0.240585
327	327	328.085	1.00332	157.374	170.711	0.2407
328	328	328.99	1.00302	157.787	171.203	0.240814
329	329	329.886	1.00269	158.198	171.688	0.240928
330	330	330.821	1.00249	158.63	172.191	0.241042
331	331	331.719	1.00217	159.039	172.68	0.241155
332	332	332.652	1.00196	159.465	173.187	0.241268
333	333	333.578	1.00174	159.891	173.687	0.241381
334	334	334.482	1.00144	160.306	174.176	0.241493
335	335	335.389	1.00116	160.723	174.666	0.241605
336	336	336.335	1.001	161.156	175.18	0.241716
337	337	337.232	1.00069	161.568	175.664	0.241827
338	338	338.139	1.00041	161.984	176.155	0.241938
339	339	339.057	1.00017	162.405	176.652	0.242048
340	340	339.987	0.999962	162.831	177.157	0.242158
341	341	340.886	0.999665	163.24	177.646	0.242268
342	342	341.818	0.999468	163.669	178.149	0.242378
343	343	342.719	0.999182	164.083	178.637	0.242487
344	344	343.632	0.99893	164.501	179.131	0.242596
345	345	344.557	0.998716	164.925	179.632	0.242704
346	346	345.474	0.998479	165.341	180.133	0.242813
347	347	346.378	0.998207	165.759	180.619	0.242921
348	348	347.281	0.997935	166.17	181.112	0.243029
349	349	348.202	0.997713	166.591	181.611	0.243137
350	350	349.109	0.997455	167.007	182.102	0.243244
351	351	350.033	0.997246	167.433	182.6	0.243351
352	352	350.971	0.997078	167.861	183.111	0.243458
353	353	351.858	0.996766	168.269	183.59	0.243564
354	354	352.768	0.99652	168.682	184.086	0.243669
355	355	353.693	0.996319	169.105	184.589	0.243774
356	356	354.609	0.996093	169.524	185.085	0.243879
357	357	355.512	0.995831	169.939	185.573	0.243983
358	358	356.421	0.995591	170.358	186.064	0.244087
359	359	357.361	0.995433	170.787	186.574	0.24419
360	360	358.247	0.995131	171.193	187.054	0.244293
361	361	359.163	0.994911	171.61	187.552	0.244395
362	362	360.085	0.994711	172.031	188.054	0.244497
363	363	360.994	0.994475	172.447	188.547	0.244598
364	364	361.895	0.994217	172.861	189.034	0.244699
365	365	362.814	0.994011	173.284	189.529	0.2448
366	366	363.744	0.993835	173.708	190.036	0.2449
367	367	364.643	0.993577	174.122	190.521	0.245
368	368	365.541	0.993318	174.531	191.01	0.2451
369	369	366.452	0.993094	174.947	191.505	0.245199
370	370	367.364	0.992875	175.365	191.999	0.245297
371	371	368.286	0.992684	175.789	192.497	0.245396
372	372	369.219	0.992525	176.214	193.005	0.245494
373	373	370.101	0.992229	176.619	193.483	0.245592
374	374	371.028	0.992054	177.042	193.986	0.245689
375	375	371.953	0.991874	177.465	194.488	0.245786
376	376	372.862	0.991655	177.881	194.981	0.245882
377	377	373.762	0.991412	178.291	195.471	0.245979
378	378	374.651	0.991142	178.699	195.953	0.246075
379	379	375.585	0.990989	179.128	196.457	0.246171
380	380	376.473	0.990717	179.532	196.94	0.246266
381	381	377.411	0.990579	179.964	197.447	0.246361
382	382	378.326	0.990382	180.38	197.946	0.246456
383	383	379.225	0.990144	180.79	198.435	0.246551
384	384	380.115	0.989883	181.197	198.918	0.246645
385	385	381.036	0.989705	181.622	199.415	0.246739
386	386	381.95	0.989507	182.038	199.912	0.246833
387	387	382.868	0.989324	182.459	200.409	0.246927
388	388	383.768	0.989092	182.871	200.897	0.24702
389	389	384.677	0.988886	183.287	201.39	0.247113
390	390	385.596	0.988707	183.706	201.889	0.247206
391	391	386.502	0.988495	184.12	202.381	0.247299
392	392	387.4	0.988266	184.532	202.868	0.247391
393	393	388.303	0.988047	184.942	203.361	0.247483
394	394	389.236	0.987909	185.369	203.867	0.247575
395	395	390.149	0.98772	185.787	204.362	0.247667
396	396	391.04	0.987475	186.192	204.848	0.247759
397	397	391.932	0.987235	186.602	205.33	0.24785
398	398	392.864	0.987097	187.03	205.834	0.247942
399	399	393.749	0.986841	187.433	206.317	0.248033
400	400	394.676	0.98669	187.857	206.819	0.248123
401	401	395.589	0.986507	188.273	207.316	0.248214
402	402	396.491	0.986296	188.684	207.807	0.248304
403	403	397.386	0.98607	189.094	208.292	0.248394
404	404	398.295	0.985879	189.512	208.783	0.248484
405	405	399.228	0.985748	189.938	209.29	0.248573
406	406	400.107	0.985486	190.34	209.767	0.248662
407	407	401.036	0.985347	190.765	210.271	0.24875
408	408	401.95	0.985171	191.182	210.768	0.248839
409	409	402.852	0.984969	191.595	211.257	0.248926
410	410	403.762	0.984786	192.01	211.752	0.249014
411	411	404.666	0.984588	192.421	212.244	0.249101
412	412	405.548	0.984339	192.825	212.723	0.249188
413	413	406.478	0.984208	193.252	213.226	0.249275
414	414	407.361	0.983965	193.653	213.708	0.249361
415	415	408.297	0.983848	194.081	214.216	0.249447
416	416	409.202	0.983659	194.496	214.706	0.249532
417	417	410.106	0.983467	194.909	215.196	0.249618
418	418	411.017	0.983294	195.325	215.692	0.249703
419	419	411.911	0.983081	195.73	216.181	0.249788
420	420	412.802	0.982863	196.14	216.662	0.249872
421	421	413.737	0.982748	196.568	217.169	0.249956
422	422	414.618	0.982507	196.971	217.648	0.250041
423	423	415.524	0.982327	197.382	218.142	0.250124
424	424	416.44	0.982169	197.799	218.641	0.250208
425	425	417.346	0.981991	198.213	219.133	0.250291
426	426	418.243	0.981791	198.624	219.619	0.250374
427	427	419.146	0.981608	199.039	220.108	0.250457
428	428	420.077	0.981487	199.464	220.613	0.250539
429	429	420.954	0.981245	199.864	221.091	0.250622
430	430	421.88	0.981115	200.284	221.595	0.250704
431	431	422.792	0.980955	200.704	222.088	0.250786
432	432	423.693	0.98077	201.116	222.577	0.250867
433	433	424.601	0.980603	201.53	223.071	0.250949
434	434	425.505	0.980425	201.941	223.564	0.25103
435	435	426.384	0.980194	202.343	224.041	0.251111
436	436	427.316	0.980082	202.77	224.546	0.251192
437	437	428.196	0.979854	203.171	225.025	0.251273
438	438	429.111	0.979705	203.588	225.523	0.251353
439	439	430.027	0.979559	204.005	226.021	0.251433
440	440	430.929	0.979384	204.417	226.512	0.251514
441	441	431.82	0.979185	204.825	226.996	0.251594
442	442	432.721	0.979007	205.238	227.483	0.251673
443	443	433.651	0.978896	205.662	227.989	0.251753
444	444	434.528	0.978667	206.063	228.466	0.251832
445	445	435.446	0.978529	206.481	228.965	0.251912
446	446	436.368	0.978403	206.901	229.466	0.251991
447	447	437.27	0.978232	207.314	229.956	0.25207
448	448	438.161	0.978038	207.718	230.443	0.252148
449	449	439.044	0.977827	208.122	230.922	0.252227
450	450	439.966	0.977702	208.546	231.42	0.252306
451	451	440.86	0.977516	208.951	231.909	0.252384
452	452	441.781	0.977392	209.374	232.407	0.252462
453	453	442.667	0.977191	209.779	232.889	0.25254
454	454	443.563	0.977011	210.186	233.377	0.252617
455	455	444.465	0.976846	210.597	233.868	0.252694
456	456	445.37	0.976689	211.011	234.359	0.252771
457	457	446.283	0.97655	211.429	234.854	0.252848
458	458	447.205	0.976429	211.849	235.356	0.252925
459	459	448.078	0.976205	212.245	235.833	0.253001
460	460	449.006	0.976099	212.671	236.334	0.253077
461	461	449.886	0.975891	213.072	236.814	0.253153
462	462	450.797	0.975751	213.487	237.31	0.253228
463	463	451.714	0.975624	213.905	237.809	0.253303
464	464	452.623	0.975481	214.321	238.303	0.253378
465	465	453.509	0.975288	214.722	238.787	0.253453
466	466	454.397	0.975101	215.129	239.268	0.253528
467	467	455.31	0.974967	215.548	239.761	0.253603
468	468	456.232	0.974854	215.967	240.265	0.253677
469	469	457.111	0.974651	216.37	240.741	0.253751
470	470	458.014	0.974498	216.779	241.235	0.253824
471	471	458.941	0.974397	217.203	241.738	0.253898
472	472	459.836	0.97423	217.613	242.224	0.253971
473	473	460.738	0.974076	218.024	242.714	0.254045
474	474	461.646	0.973937	218.438	243.208	0.254118
475	475	462.527	0.973741	218.838	243.688	0.25419
476	476	463.423	0.973578	219.249	244.174	0.254263
477	477	464.353	0.973487	219.672	244.681	0.254335
478	478	465.228	0.97328	220.073	245.155	0.254408
479	479	466.125	0.973122	220.479	245.646	0.25448
480	480	467.047	0.973014	220.9	246.147	0.254552
481	481	467.958	0.972885	221.317	246.641	0.254624
482	482	468.858	0.972734	221.727	247.131	0.254695
483	483	469.742	0.97255	222.13	247.612	0.254767
484	484	470.63	0.972376	222.536	248.094	0.254838
485	485	471.555	0.972278	222.958	248.596	0.254909
486	486	472.43	0.972077	223.355	249.074	0.25498
487	487	473.364	0.972	223.782	249.582	0.255051
488	488	474.25	0.971824	224.188	250.062	0.255121
489	489	475.142	0.97166	224.594	250.547	0.255192
490	490	476.041	0.971512	225.005	251.036	0.255262
491	491	476.948	0.971381	225.419	251.53	0.255333
492	492	477.862	0.971265	225.835	252.028	0.255403
493	493	478.744	0.971083	226.235	252.509	0.255472
494	494	479.65	0.970952	226.651	253	0.255542
495	495	480.541	0.97079	227.054	253.487	0.255612
496	496	481.468	0.970701	227.478	253.989	0.255682
497	497	482.357	0.970537	227.885	254.472	0.255751
498	498	483.253	0.970387	228.294	254.959	0.25582
499	499	484.156	0.970253	228.705	255.451	0.25589
500	500	485.067	0.970134	229.12	255.947	0.255959
501	501	485.948	0.969955	229.52	256.428	0.256028
502	502	486.846	0.969813	229.932	256.914	0.256096
503	503	487.761	0.969704	230.346	257.415	0.256165
504	504	488.649	0.969542	230.754	257.895	0.256233
505	505	489.537	0.96938	231.156	258.381	0.256301
506	506	490.457	0.969283	231.575	258.883	0.256369
507	507	491.367	0.969165	231.992	259.375	0.256437
508	508	492.265	0.969025	232.401	259.863	0.256504
509	509	493.167	0.968894	232.812	260.355	0.256572
510	510	494.061	0.968747	233.221	260.84	0.256639
511	511	494.933	0.968558	233.617	261.317	0.256706
512	512	495.852	0.968461	234.037	261.814	0.256773
513	513	496.746	0.968315	234.443	262.303	0.256839
514	514	497.651	0.968192	234.857	262.793	0.256905
515	515	498.53	0.96802	235.256	263.274	0.256972
516	516	499.454	0.967934	235.679	263.775	0.257038
517	517	500.362	0.967818	236.092	264.27	0.257104
518	518	501.258	0.96768	236.501	264.757	0.257169
519	519	502.159	0.967552	236.911	265.248	0.257235
520	520	503.038	0.967381	237.308	265.73	0.2573
521	521	503.924	0.967224	237.714	266.21	0.257365
522	522	504.84	0.967126	238.134	266.706	0.25743
523	523	505.744	0.967006	238.546	267.198	0.257495
524	524	506.636	0.966863	238.953	267.683	0.25756
525	525	507.519	0.966702	239.352	268.166	0.257625
526	526	508.44	0.966617	239.772	268.668	0.257689
527	527	509.345	0.9665	240.187	269.159	0.257753
528	528	510.24	0.966364	240.595	269.645	0.257818
529	529	511.141	0.966241	241.005	270.136	0.257881
530	530	512.041	0.966114	241.414	270.627	0.257945
531	531	512.911	0.965934	241.809	271.102	0.258009
532	532	513.819	0.965825	242.226	271.593	0.258073
533	533	514.728	0.965718	242.637	272.091	0.258136
534	534	515.615	0.965571	243.044	272.57	0.258199
535	535	516.505	0.965429	243.447	273.058	0.258263
536	536	517.433	0.96536	243.871	273.562	0.258326
537	537	518.324	0.965222	244.278	274.046	0.258389
538	538	519.219	0.965091	244.686	274.533	0.258451
539	539	520.12	0.964972	245.097	275.023	0.258514
540	540	521.022	0.964856	245.506	275.516	0.258577
541	541	521.89	0.964676	245.901	275.989	0.258639
542	542	522.799	0.964574	246.318	276.481	0.258701
543	543	523.698	0.964452	246.723	276.975	0.258764
544	544	524.596	0.964331	247.137	277.459	0.258826
545	545	525.478	0.96418	247.536	277.942	0.258888
546	546	526.389	0.964082	247.949	278.44	0.25895
547	547	527.307	0.963999	248.37	278.937	0.259011
548	548	528.203	0.963874	248.779	279.424	0.259073
549	549	529.095	0.963743	249.184	279.911	0.259135
550	550	529.971	0.963584	249.583	280.389	0.259196
551	551	530.867	0.963461	249.993	280.874	0.259258
552	552	531.787	0.963382	250.412	281.375	0.259319
553	553	532.656	0.963212	250.806	281.85	0.25938
554	554	533.58	0.96314	251.229	282.351	0.259441
555	555	534.453	0.962979	251.626	282.827	0.259501
556	556	535.36	0.962879	252.038	283.322	0.259562
557	557	536.277	0.962795	252.456	283.82	0.259622
558	558	537.167	0.962664	252.863	284.304	0.259682
559	559	538.061	0.962543	253.27	284.791	0.259743
560	560	538.961	0.96243	253.68	285.281	0.259802
561	561	539.865	0.962326	254.091	285.774	0.259862
562	562	540.735	0.962161	254.486	286.249	0.259922
563	563	541.63	0.962042	254.896	286.734	0.259981
564	564	542.551	0.961969	255.314	287.236	0.260041
565	565	543.417	0.9618	255.708	287.709	0.2601
566	566	544.346	0.961742	256.132	288.214	0.260159
567	567	545.222	0.96159	256.532	288.69	0.260218
568	568	546.105	0.961453	256.932	289.173	0.260277
569	569	547.013	0.961358	257.345	289.667	0.260335
570	570	547.911	0.961247	257.752	290.159	0.260394
571	571	548.822	0.961159	258.172	290.65	0.260452
572	572	549.7	0.961014	258.569	291.131	0.260511
573	573	550.586	0.960884	258.973	291.613	0.260569
574	574	551.496	0.960795	259.39	292.106	0.260627
575	575	552.413	0.960718	259.805	292.607	0.260685
576	576	553.276	0.960549	260.199	293.077	0.260743
577	577	554.203	0.960491	260.621	293.582	0.2608
578	578	555.076	0.960338	261.02	294.056	0.260858
579	579	555.963	0.960212	261.421	294.542	0.260915
580	580	556.876	0.960131	261.836	295.04	0.260973
581	581	557.786	0.960045	262.252	295.534	0.26103
582	582	558.68	0.959931	262.66	296.02	0.261087
583	583	559.579	0.959827	263.068	296.511	0.261144
584	584	560.463	0.959697	263.472	296.991	0.261201
585	585	561.335	0.959547	263.868	297.468	0.261258
586	586	562.248	0.959467	264.286	297.962	0.261314
587	587	563.14	0.959353	264.687	298.453	0.261371
588	588	564.033	0.95924	265.098	298.935	0.261427
589	589	564.928	0.959131	265.503	299.425	0.261484
590	590	565.841	0.959052	265.921	299.92	0.26154
591	591	566.721	0.958919	266.322	300.399	0.261596
592	592	567.608	0.958797	266.725	300.882	0.261652
593	593	568.5	0.958685	267.131	301.369	0.261708
594	594	569.397	0.958581	267.54	301.857	0.261764
595	595	570.3	0.958488	267.952	302.348	0.26182
596	596	571.209	0.958404	268.365	302.844	0.261876
597	597	572.1	0.958292	268.77	303.33	0.261931
598	598	572.98	0.95816	269.171	303.809	0.261987
599	599	573.899	0.958095	269.588	304.311	0.262042
600	600	574.774	0.957957	269.988	304.785	0.262098
601	601	575.661	0.957838	270.389	305.272	0.262153
602	602	576.587	0.957786	270.812	305.775	0.262208
603	603	577.471	0.957664	271.216	306.255	0.262263
604	604	578.359	0.957548	271.621	306.738	0.262318
605	605	579.251	0.957439	272.027	307.224	0.262373
606	606	580.148	0.95734	272.435	307.713	0.262428
607	607	581.049	0.957248	272.845	308.204	0.262482
608	608	581.955	0.957162	273.255	308.699	0.262536
609	609	582.819	0.957011	273.648	309.172	0.262591
610	610	583.719	0.956916	274.06	309.658	0.262645
611	611	584.639	0.956855	274.477	310.161	0.262699
612	612	585.502	0.956702	274.871	310.631	0.262753
613	613	586.42	0.95664	275.288	311.132	0.262806
614	614	587.303	0.956519	275.692	311.611	0.26286
615	615	588.181	0.956392	276.09	312.092	0.262914
616	616	589.088	0.956312	276.502	312.586	0.262967
617	617	589.995	0.956232	276.915	313.081	0.26302
618	618	590.898	0.956146	277.327	313.572	0.263073
619	619	591.791	0.956044	277.733	314.058	0.263127
620	620	592.666	0.955913	278.128	314.538	0.263179
621	621	593.548	0.955794	278.531	315.017	0.263232
622	622	594.446	0.9557	278.942	315.503	0.263285
623	623	595.36	0.955633	279.358	316.001	0.263338
624	624	596.232	0.955501	279.753	316.479	0.26339
625	625	597.14	0.955424	280.169	316.971	0.263443
626	626	598.018	0.9553	280.565	317.452	0.263495
627	627	598.939	0.955245	280.987	317.952	0.263548
628	628	599.814	0.955118	281.386	318.428	0.2636
629	629	600.697	0.955003	281.786	318.911	0.263652
630	630	601.594	0.954912	282.193	319.401	0.263704
631	631	602.497	0.954828	282.605	319.892	0.263756
632	632	603.388	0.954728	283.01	320.378	0.263807
633	633	604.272	0.954616	283.412	320.86	0.263859
634	634	605.167	0.954522	283.821	321.346	0.263911
635	635	606.076	0.95445	284.236	321.84	0.263962
636	636	606.982	0.954374	284.646	322.336	0.264014
637	637	607.846	0.954233	285.04	322.806	0.264065
638	638	608.768	0.954182	285.46	323.308	0.264116
639	639	609.634	0.954044	285.854	323.78	0.264168
640	640	610.541	0.95397	286.263	324.277	0.264219
641	641	611.442	0.953888	286.678	324.765	0.26427
642	642	612.322	0.953773	287.078	325.244	0.264321
643	643	613.208	0.953666	287.48	325.727	0.264372
644	644	614.099	0.953569	287.885	326.214	0.264422
645	645	614.993	0.953477	288.292	326.701	0.264473
646	646	615.891	0.953391	288.702	327.189	0.264524
647	647	616.795	0.953316	289.114	327.682	0.264574
648	648	617.704	0.953246	289.526	328.178	0.264625
649	649	618.564	0.953103	289.915	328.648	0.264675
650	650	619.475	0.953039	290.333	329.142	0.264725
651	651	620.358	0.95293	290.732	329.626	0.264776
652	652	621.264	0.952858	291.147	330.117	0.264826
653	653	622.135	0.952734	291.541	330.594	0.264876
654	654	623.048	0.952673	291.955	331.093	0.264926
655	655	623.946	0.952589	292.367	331.579	0.264975
656	656	624.827	0.95248	292.768	332.059	0.265025
657	657	625.713	0.952378	293.171	332.542	0.265075
658	658	626.603	0.952284	293.575	333.027	0.265124
659	659	627.496	0.952195	293.982	333.514	0.265174
660	660	628.394	0.952113	294.391	334.003	0.265223
661	661	629.297	0.952037	294.802	334.495	0.265272
662	662	630.202	0.951967	295.212	334.99	0.265321
663	663	631.066	0.951834	295.604	335.462	0.26537
664	664	631.966	0.951755	296.016	335.949	0.265419
665	665	632.877	0.951695	296.429	336.448	0.265468
666	666	633.745	0.951569	296.825	336.92	0.265517
667	667	634.653	0.951504	297.235	337.418	0.265565
668	668	635.541	0.951408	297.643	337.898	0.265614
669	669	636.416	0.951295	298.039	338.378	0.265662
670	670	637.331	0.951241	298.456	338.875	0.265711
671	671	638.234	0.951168	298.866	339.367	0.265759
672	672	639.12	0.951071	299.27	339.85	0.265807
673	673	640.01	0.95098	299.675	340.334	0.265855
674	674	640.904	0.950895	300.082	340.822	0.265903
675	675	641.801	0.950816	300.489	341.312	0.265951
676	676	642.678	0.950707	300.885	341.793	0.265999
677	677	643.554	0.950597	301.285	342.269	0.266047
678	678	644.458	0.950529	301.699	342.759	0.266095
679	679	645.373	0.950476	302.114	343.259	0.266142
680	680	646.231	0.95034	302.504	343.727	0.26619
681	681	647.153	0.950298	302.924	344.229	0.266237
682	682	648.018	0.950174	303.318	344.7	0.266285
683	683	648.93	0.950117	303.733	345.197	0.266332
684	684	649.824	0.950034	304.14	345.684	0.266379
685	685	650.701	0.949929	304.539	346.162	0.266427
686	686	651.584	0.949831	304.94	346.644	0.266474
687	687	652.473	0.949743	305.343	347.13	0.266521
688	688	653.365	0.949658	305.748	347.617	0.266568
689	689	654.257	0.949575	306.155	348.102	0.266614
690	690	655.154	0.949498	306.564	348.59	0.266661
691	691	656.057	0.949431	306.975	349.081	0.266708
692	692	656.964	0.949369	307.387	349.577	0.266755
693	693	657.826	0.949244	307.777	350.049	0.266801
694	694	658.729	0.949178	308.191	350.538	0.266848
695	695	659.634	0.949114	308.603	351.032	0.266894
696	696	660.512	0.949011	309.002	351.51	0.266941
697	697	661.395	0.948916	309.4	351.995	0.266987
698	698	662.311	0.94887	309.819	352.492	0.267033
699	699	663.186	0.948764	310.218	352.968	0.26708
700	700	664.066	0.948666	310.617	353.449	0.267126
701	701	664.956	0.948582	311.02	353.936	0.267172
702	702	665.851	0.948506	311.427	354.424	0.267218
703	703	666.744	0.948426	311.833	354.911	0.267264
704	704	667.631	0.948339	312.237	355.394	0.267309
705	705	668.521	0.948257	312.643	355.879	0.267355
706	706	669.421	0.948188	313.054	356.367	0.267401
707	707	670.327	0.948129	313.466	356.862	0.267446
708	708	671.209	0.948036	313.863	357.347	0.267492
709	709	672.088	0.947938	314.266	357.822	0.267537
710	710	673.005	0.947894	314.683	358.322	0.267583
711	711	673.868	0.947775	315.074	358.794	0.267628
712	712	674.788	0.947736	315.494	359.294	0.267673
713	713	675.654	0.947622	315.888	359.766	0.267718
714	714	676.561	0.947565	316.3	360.261	0.267763
715	715	677.46	0.947497	316.709	360.751	0.267808
716	716	678.337	0.947399	317.109	361.228	0.267853
717	717	679.219	0.947307	317.509	361.71	0.267898
718	718	680.106	0.947222	317.911	362.194	0.267943
719	719	680.996	0.947143	318.316	362.68	0.267988
720	720	681.887	0.947066	318.722	363.166	0.268032
721	721	682.782	0.946993	319.13	363.652	0.268077
722	722	683.682	0.946928	319.54	364.142	0.268121
723	723	684.587	0.946869	319.95	364.636	0.268166
724	724	685.474	0.946787	320.354	365.12	0.26821
725	725	686.344	0.946682	320.749	365.595	0.268255
726	726	687.26	0.946638	321.166	366.094	0.268299
727	727	688.122	0.946523	321.556	366.566	0.268343
728	728	689.04	0.946483	321.976	367.064	0.268387
729	729	689.905	0.946372	322.368	367.537	0.268431
730	730	690.813	0.946319	322.779	368.034	0.268475
731	731	691.708	0.946249	323.189	368.519	0.268519
732	732	692.584	0.946153	323.588	368.996	0.268563
733	733	693.467	0.946066	323.987	369.479	0.268607
734	734	694.358	0.945992	324.391	369.967	0.26865
735	735	695.252	0.945921	324.798	370.454	0.268694
736	736	696.141	0.945843	325.202	370.939	0.268738
737	737	697.028	0.945764	325.606	371.422	0.268781
738	738	697.923	0.945695	326.015	371.908	0.268825
739	739	698.826	0.945638	326.426	372.4	0.268868
740	740	699.732	0.945584	326.837	372.895	0.268912
741	741	700.591	0.945467	327.226	373.365	0.268955
742	742	701.497	0.945413	327.641	373.856	0.268998
743	743	702.392	0.945346	328.047	374.345	0.269041
744	744	703.276	0.945263	328.45	374.826	0.269085
745	745	704.156	0.945176	328.847	375.309	0.269128
746	746	705.07	0.945134	329.265	375.806	0.269171
747	747	705.942	0.945036	329.662	376.28	0.269214
748	748	706.822	0.944949	330.06	376.762	0.269257
749	749	707.723	0.94489	330.469	377.254	0.2693
750	750	708.619	0.944825	330.875	377.744	0.269343
314.7	314.019	315.873	1.0059	151.474	164.399	0.239771
314.8	311.348	311.9	1.00177	148.735	163.165	0.241918
314.9	309.654	309.371	0.999086	147.144	162.227	0.243331
315	308.278	307.355	0.997007	145.929	161.426	0.244403
315.1	307.086	305.646	0.99531	144.93	160.716	0.245222
315.2	306.019	304.141	0.993864	144.069	160.072	0.24589
315.3	305.044	302.785	0.992596	143.305	159.48	0.246458
315.4	304.135	301.535	0.991454	142.608	158.928	0.24696
315.5	303.284	300.378	0.990418	141.969	158.409	0.247406
315.6	302.485	299.301	0.989474	141.379	157.922	0.247808
315.7	301.725	298.284	0.988597	140.826	157.459	0.248177
315.8	301.001	297.323	0.987781	140.306	157.017	0.248517
315.9	300.309	296.411	0.98702	139.815	156.596	0.248832
316	299.643	295.538	0.9863	139.348	156.191	0.249128
316.1	299.002	294.703	0.98562	138.902	155.801	0.249406
316.2	298.385	293.902	0.984977	138.476	155.426	0.249667
316.3	297.787	293.13	0.984363	138.067	155.063	0.249916
316.4	297.206	292.384	0.983776	137.673	154.711	0.250153
316.5	296.643	291.663	0.983215	137.294	154.37	0.250378
316.6	296.095	290.966	0.982676	136.927	154.038	0.250594
316.7	295.56	290.286	0.982156	136.571	153.715	0.250802
316.8	295.037	289.623	0.981652	136.224	153.399	0.251004
316.9	294.525	288.978	0.981165	135.887	153.091	0.251198
317	294.025	288.349	0.980694	135.559	152.79	0.251386
317.1	293.537	287.736	0.980239	135.241	152.496	0.251567
317.2	293.06	287.14	0.979799	134.931	152.209	0.251742
317.3	292.593	286.558	0.979374	134.63	151.929	0.25191
317.4	292.138	285.992	0.978964	134.337	151.655	0.252072
317.5	291.69	285.437	0.978564	134.05	151.387	0.25223
317.6	291.251	284.894	0.978174	133.77	151.124	0.252383
317.7	290.819	284.361	0.977795	133.496	150.865	0.252532
317.8	290.395	283.839	0.977425	133.227	150.612	0.252678
317.9	289.978	283.328	0.977065	132.964	150.363	0.252819
318	289.568	282.825	0.976713	132.706	150.118	0.252957
317	294.025	288.349	0.980694	135.559	152.79	0.251386
318	289.568	282.825	0.976713	132.706	150.118	0.252957
319	285.78	278.228	0.973571	130.36	147.868	0.254189
320	282.446	274.242	0.970953	128.342	145.9	0.255213
321	279.447	270.7	0.968698	126.559	144.14	0.256095
322	276.706	267.494	0.966708	124.954	142.54	0.256874
323	274.173	264.556	0.964923	123.488	141.068	0.257575
324	271.815	261.84	0.963302	122.138	139.702	0.258212
325	269.603	259.308	0.961814	120.883	138.425	0.258798
326	267.516	256.932	0.960436	119.708	137.224	0.259343
327	265.539	254.693	0.959153	118.603	136.09	0.259851
328	263.659	252.572	0.957951	117.559	135.013	0.26033
329	261.865	250.558	0.956819	116.568	133.989	0.260781
330	260.148	248.637	0.955749	115.626	133.011	0.261209
331	258.502	246.801	0.954734	114.726	132.075	0.261617
332	256.919	245.041	0.953768	113.865	131.176	0.262006
333	255.395	243.352	0.952846	113.04	130.313	0.262378
334	253.924	241.727	0.951964	112.246	129.481	0.262735
335	252.503	240.16	0.951118	111.482	128.678	0.263079
336	251.128	238.648	0.950305	110.745	127.902	0.263411
337	249.795	237.186	0.949523	110.034	127.152	0.263732
338	248.501	235.77	0.948768	109.345	126.424	0.264042
339	247.245	234.398	0.94804	108.679	125.719	0.264342
340	246.024	233.067	0.947335	108.033	125.034	0.264634
341	244.836	231.774	0.946653	107.406	124.368	0.264917
342	243.678	230.517	0.945991	106.797	123.721	0.265193
343	242.55	229.295	0.94535	106.205	123.09	0.265461
344	241.447	228.1	0.944724	105.627	122.474	0.265727
345	240.365	226.931	0.944112	105.061	121.87	0.265991
346	239.305	225.787	0.943514	104.508	121.279	0.266252
347	238.266	224.668	0.94293	103.967	120.701	0.266511
348	237.249	223.574	0.94236	103.439	120.135	0.266767
349	236.253	222.503	0.941802	102.922	119.581	0.267018
350	235.277	221.457	0.941259	102.418	119.039	0.267264
351	234.323	220.434	0.940728	101.925	118.509	0.267505
352	233.39	219.436	0.940211	101.444	117.992	0.267739
353	232.478	218.461	0.939707	100.975	117.487	0.267966
354	231.587	217.51	0.939216	100.517	116.994	0.268186
355	230.717	216.583	0.938737	100.071	116.512	0.268398
356	229.866	215.676	0.938271	99.6347	116.042	0.268603
357	229.028	214.786	0.937812	99.2065	115.579	0.268806
358	228.204	213.91	0.937361	98.7857	115.124	0.269009
359	227.393	213.049	0.936918	98.3722	114.677	0.26921
360	226.595	212.203	0.936483	97.9659	114.237	0.269409
361	225.81	211.371	0.936055	97.5668	113.804	0.269606
362	225.038	210.554	0.935635	97.1747	113.379	0.269801
363	224.279	209.751	0.935222	96.7897	112.961	0.269992
364	223.533	208.962	0.934816	96.4116	112.551	0.270181
365	222.799	208.188	0.934418	96.0404	112.147	0.270367
366	222.078	207.427	0.934028	95.676	111.751	0.270548
367	221.369	206.68	0.933644	95.3183	111.362	0.270726
368	220.673	205.947	0.933268	94.9674	110.98	0.270899
369	219.989	205.228	0.932899	94.6231	110.605	0.271068
370	219.318	204.522	0.932537	94.2852	110.237	0.271233
371	218.655	203.826	0.93218	93.9522	109.873	0.271396
372	218.001	203.139	0.931827	93.6238	109.515	0.271559
373	217.355	202.461	0.93148	93.2999	109.162	0.271721
374	216.717	201.793	0.931137	92.9805	108.813	0.271882
375	216.088	201.134	0.930798	92.6656	108.468	0.272043
376	215.467	200.484	0.930465	92.3551	108.129	0.272202
377	214.854	199.843	0.930136	92.049	107.794	0.272359
378	214.249	199.211	0.929811	91.7473	107.464	0.272515
379	213.652	198.588	0.929491	91.4499	107.138	0.272669
380	213.064	197.974	0.929176	91.1569	106.817	0.272821
381	212.484	197.369	0.928865	90.8682	106.501	0.27297
382	211.911	196.772	0.928559	90.5837	106.189	0.273117
383	211.347	196.185	0.928257	90.3035	105.881	0.273262
384	210.791	195.606	0.92796	90.0275	105.578	0.273404
385	210.243	195.035	0.927667	89.7557	105.28	0.273543
386	209.702	194.473	0.927378	89.4876	104.985	0.273681
387	209.166	193.916	0.927092	89.2225	104.694	0.273818
388	208.636	193.366	0.926809	88.9604	104.406	0.273955
389	208.112	192.822	0.92653	88.7013	104.121	0.274092
390	207.593	192.284	0.926253	88.4451	103.839	0.274228
391	207.08	191.752	0.925979	88.1919	103.56	0.274363
392	206.572	191.226	0.925709	87.9416	103.284	0.274498
393	206.07	190.706	0.925442	87.6942	103.012	0.274632
394	205.573	190.192	0.925177	87.4497	102.742	0.274765
395	205.082	189.684	0.924916	87.2081	102.476	0.274897
396	204.596	189.182	0.924658	86.9694	102.212	0.275028
397	204.116	188.685	0.924403	86.7335	101.952	0.275157
398	203.641	188.195	0.92415	86.5005	101.695	0.275286
399	203.172	187.711	0.923901	86.2703	101.44	0.275412
400	202.708	187.232	0.923655	86.0429	101.189	0.275537
401	202.249	186.759	0.923411	85.8184	100.941	0.27566
402	201.797	186.293	0.923171	85.5969	100.696	0.275781
403	201.349	185.832	0.922933	85.3779	100.454	0.275901
404	200.905	185.375	0.922698	85.1611	100.214	0.276021
405	200.466	184.923	0.922465	84.9465	99.9765	0.27614
406	200.031	184.475	0.922234	84.7341	99.7414	0.276259
407	199.6	184.033	0.922005	84.5239	99.5086	0.276377
408	199.174	183.594	0.921778	84.3159	99.2781	0.276495
409	198.751	183.16	0.921554	84.1101	99.05	0.276611
410	198.333	182.731	0.921332	83.9064	98.8243	0.276727
411	197.919	182.306	0.921112	83.7049	98.6008	0.276842
412	197.509	181.885	0.920894	83.5055	98.3797	0.276957
413	197.104	181.469	0.920679	83.3083	98.1609	0.27707
414	196.702	181.058	0.920466	83.1132	97.9444	0.277182
415	196.305	180.65	0.920254	82.9202	97.7302	0.277293
416	195.912	180.248	0.920046	82.7293	97.5183	0.277402
417	195.523	179.849	0.919839	82.5406	97.3087	0.27751
418	195.138	179.455	0.919634	82.3539	97.1013	0.277617
419	194.757	179.066	0.919431	82.1694	96.8962	0.277723
420	194.38	178.68	0.919231	81.9868	96.6934	0.277827
421	194.006	178.298	0.919032	81.8059	96.4923	0.27793
422	193.636	177.919	0.918835	81.6266	96.2929	0.278034
423	193.268	177.544	0.918639	81.4488	96.0951	0.278137
424	192.904	177.172	0.918446	81.2726	95.899	0.278241
425	192.542	176.803	0.918253	81.0979	95.7046	0.278343
426	192.184	176.437	0.918063	80.9248	95.5119	0.278446
427	191.828	176.074	0.917874	80.7532	95.3208	0.278548
428	191.476	175.715	0.917686	80.5832	95.1314	0.27865
429	191.126	175.358	0.9175	80.4147	94.9437	0.278751
430	190.78	175.005	0.917316	80.2477	94.7576	0.278852
431	190.436	174.655	0.917134	80.0823	94.5731	0.278952
432	190.096	174.309	0.916953	79.9183	94.3903	0.279051
433	189.758	173.965	0.916773	79.7559	94.2092	0.27915
434	189.423	173.625	0.916595	79.595	94.0296	0.279247
435	189.092	173.287	0.916419	79.4356	93.8518	0.279345
436	188.763	172.953	0.916244	79.2776	93.6755	0.279441
437	188.438	172.622	0.916071	79.1212	93.5009	0.279536
438	188.115	172.294	0.915899	78.9663	93.3279	0.27963
439	187.795	171.969	0.915729	78.8127	93.1564	0.279724
440	187.477	171.646	0.91556	78.6603	92.9861	0.279818
441	187.161	171.326	0.915392	78.509	92.817	0.279912
442	186.848	171.008	0.915226	78.3588	92.6492	0.280005
443	186.537	170.692	0.91506	78.2098	92.4825	0.280099
444	186.228	170.379	0.914896	78.0619	92.3171	0.280193
445	185.921	170.068	0.914733	77.9151	92.1529	0.280286
446	185.616	169.759	0.914572	77.7695	91.99	0.28038
447	185.314	169.453	0.914411	77.6249	91.8282	0.280473
448	185.014	169.149	0.914252	77.4815	91.6676	0.280566
449	184.716	168.848	0.914094	77.3392	91.5083	0.280658
450	184.42	168.548	0.913938	77.1981	91.3502	0.28075
451	184.126	168.251	0.913782	77.0581	91.1933	0.280842
452	183.835	167.957	0.913628	76.9193	91.0379	0.280933
453	183.547	167.665	0.913475	76.7817	90.8837	0.281023
454	183.261	167.376	0.913323	76.6454	90.7309	0.281112
455	182.977	167.09	0.913172	76.5103	90.5795	0.281201
456	182.696	166.806	0.913023	76.3764	90.4293	0.281288
457	182.417	166.524	0.912875	76.2438	90.2806	0.281375
458	182.141	166.245	0.912728	76.1122	90.1331	0.281461
459	181.867	165.968	0.912582	75.9817	89.9866	0.281546
460	181.594	165.693	0.912437	75.8521	89.8412	0.281632
461	181.324	165.42	0.912293	75.7235	89.6968	0.281717
462	181.055	165.149	0.91215	75.5958	89.5535	0.281802
463	180.788	164.88	0.912008	75.469	89.4112	0.281886
464	180.523	164.613	0.911867	75.3432	89.27	0.281971
465	180.26	164.348	0.911727	75.2184	89.1298	0.282054
466	179.999	164.085	0.911589	75.0945	88.9906	0.282138
467	179.74	163.824	0.911451	74.9716	88.8524	0.282221
468	179.482	163.565	0.911314	74.8495	88.7153	0.282304
469	179.227	163.308	0.911178	74.7285	88.5792	0.282386
470	178.973	163.052	0.911043	74.6083	88.4442	0.282468
471	178.722	162.799	0.910909	74.4891	88.3101	0.282549
472	178.472	162.548	0.910776	74.3708	88.1771	0.28263
473	178.224	162.299	0.910644	74.2535	88.0452	0.28271
474	177.978	162.051	0.910513	74.1371	87.9142	0.282789
475	177.734	161.806	0.910382	74.0216	87.7843	0.282868
476	177.492	161.562	0.910253	73.907	87.6554	0.282946
477	177.251	161.321	0.910125	73.7934	87.5275	0.283024
478	177.013	161.081	0.909998	73.6805	87.4005	0.283101
479	176.775	160.843	0.909871	73.5684	87.2742	0.283178
480	176.539	160.605	0.909745	73.4568	87.1486	0.283256
481	176.304	160.37	0.90962	73.3459	87.0237	0.283334
482	176.07	160.135	0.909496	73.2356	86.8994	0.283412
483	175.838	159.902	0.909372	73.1259	86.7758	0.283491
484	175.606	159.67	0.909249	73.0169	86.6529	0.283569
485	175.376	159.439	0.909127	72.9084	86.5306	0.283648
486	175.147	159.21	0.909005	72.8007	86.4091	0.283727
487	174.92	158.982	0.908885	72.6935	86.2882	0.283806
488	174.693	158.755	0.908764	72.5869	86.168	0.283885
489	174.468	158.529	0.908645	72.481	86.0484	0.283964
490	174.244	158.305	0.908526	72.3757	85.9295	0.284043
491	174.021	158.082	0.908409	72.271	85.8113	0.284123
492	173.8	157.861	0.908291	72.1669	85.6938	0.284202
493	173.579	157.64	0.908175	72.0634	85.5769	0.284282
494	173.36	157.421	0.908059	71.9606	85.4608	0.284361
495	173.142	157.204	0.907944	71.8583	85.3452	0.28444
496	172.926	156.987	0.90783	71.7567	85.2304	0.28452
497	172.71	156.772	0.907716	71.6557	85.1162	0.284599
498	172.496	156.558	0.907603	71.5553	85.0027	0.284678
499	172.283	156.345	0.907491	71.4555	84.8898	0.284757
500	172.071	156.134	0.907379	71.3563	84.7777	0.284836
501	171.861	155.924	0.907268	71.2578	84.6662	0.284914
502	171.652	155.715	0.907158	71.16	84.5555	0.284993
503	171.444	155.508	0.907048	71.0628	84.4456	0.28507
504	171.238	155.303	0.90694	70.9664	84.3365	0.285147
505	171.034	155.099	0.906832	70.8706	84.2281	0.285224
506	170.83	154.896	0.906724	70.7756	84.1205	0.2853
507	170.629	154.695	0.906618	70.6812	84.0137	0.285376
508	170.428	154.495	0.906512	70.5875	83.9076	0.285451
509	170.229	154.297	0.906406	70.4946	83.8023	0.285525
510	170.032	154.1	0.906302	70.4023	83.6978	0.285599
511	169.836	153.905	0.906198	70.3106	83.5941	0.285672
512	169.641	153.711	0.906095	70.2197	83.4911	0.285744
513	169.448	153.518	0.905992	70.1295	83.3889	0.285816
514	169.256	153.327	0.905891	70.0399	83.2874	0.285887
515	169.065	153.138	0.90579	69.951	83.1867	0.285957
516	168.877	152.95	0.905689	69.8628	83.0868	0.286027
517	168.689	152.763	0.905589	69.7753	82.9876	0.286096
518	168.503	152.578	0.90549	69.6884	82.8892	0.286164
519	168.318	152.394	0.905392	69.6022	82.7916	0.286231
520	168.134	152.211	0.905294	69.5165	82.6944	0.286299
521	167.951	152.029	0.905197	69.4311	82.5977	0.286367
522	167.769	151.848	0.9051	69.3462	82.5014	0.286434
523	167.588	151.667	0.905003	69.2618	82.4057	0.286502
524	167.407	151.488	0.904908	69.1778	82.3104	0.28657
525	167.228	151.31	0.904812	69.0942	82.2155	0.286638
526	167.049	151.132	0.904718	69.011	82.1212	0.286706
527	166.871	150.956	0.904623	68.9283	82.0273	0.286774
528	166.694	150.78	0.904529	68.846	81.9339	0.286843
529	166.518	150.605	0.904436	68.7641	81.841	0.286911
530	166.343	150.431	0.904343	68.6827	81.7485	0.286979
531	166.169	150.258	0.904251	68.6017	81.6565	0.287047
532	165.995	150.086	0.904159	68.5211	81.565	0.287115
533	165.823	149.915	0.904068	68.441	81.474	0.287184
534	165.651	149.745	0.903977	68.3613	81.3834	0.287252
535	165.48	149.575	0.903887	68.282	81.2933	0.28732
536	165.31	149.407	0.903797	68.2031	81.2037	0.287388
537	165.141	149.239	0.903708	68.1247	81.1145	0.287456
538	164.973	149.072	0.903619	68.0467	81.0258	0.287524
539	164.805	148.907	0.903531	67.9691	80.9376	0.287591
540	164.639	148.742	0.903443	67.8919	80.8498	0.287659
541	164.473	148.578	0.903356	67.8152	80.7625	0.287726
542	164.308	148.415	0.903269	67.7389	80.6757	0.287794
543	164.144	148.252	0.903183	67.663	80.5894	0.287861
544	163.981	148.091	0.903097	67.5875	80.5035	0.287928
545	163.819	147.931	0.903011	67.5125	80.4181	0.287995
546	163.658	147.771	0.902927	67.4378	80.3331	0.288061
547	163.497	147.612	0.902842	67.3636	80.2486	0.288128
548	163.338	147.454	0.902758	67.2898	80.1646	0.288194
549	163.179	147.298	0.902675	67.2165	80.0811	0.28826
550	163.021	147.142	0.902592	67.1435	79.998	0.288326
551	162.864	146.986	0.902509	67.071	79.9154	0.288391
552	162.708	146.832	0.902427	66.999	79.8334	0.288456
553	162.553	146.679	0.902346	66.9275	79.7519	0.288521
554	162.4	146.527	0.902265	66.8564	79.671	0.288585
555	162.247	146.376	0.902184	66.7858	79.5906	0.288648
556	162.095	146.226	0.902104	66.7157	79.5107	0.288711
557	161.944	146.077	0.902024	66.6461	79.4314	0.288773
558	161.794	145.93	0.901945	66.577	79.3526	0.288835
559	161.646	145.783	0.901866	66.5083	79.2743	0.288896
560	161.498	145.637	0.901788	66.4401	79.1966	0.288957
561	161.351	145.492	0.90171	66.3724	79.1195	0.289017
562	161.205	145.348	0.901633	66.3051	79.0428	0.289076
563	161.06	145.205	0.901556	66.2381	78.9665	0.289136
564	160.915	145.062	0.90148	66.1715	78.8905	0.289195
565	160.771	144.92	0.901403	66.1051	78.8148	0.289255
566	160.628	144.779	0.901328	66.0391	78.7395	0.289315
567	160.485	144.638	0.901252	65.9733	78.6645	0.289374
568	160.343	144.498	0.901177	65.9079	78.5899	0.289434
569	160.202	144.358	0.901103	65.8428	78.5156	0.289494
570	160.061	144.22	0.901028	65.7779	78.4416	0.289554
571	159.921	144.081	0.900954	65.7134	78.368	0.289614
572	159.781	143.944	0.900881	65.6492	78.2947	0.289673
573	159.642	143.807	0.900808	65.5853	78.2218	0.289733
574	159.504	143.671	0.900735	65.5217	78.1492	0.289793
575	159.366	143.535	0.900662	65.4584	78.0769	0.289853
576	159.229	143.4	0.90059	65.3955	78.005	0.289912
577	159.093	143.266	0.900518	65.3328	77.9334	0.289972
578	158.957	143.133	0.900447	65.2704	77.8621	0.290032
579	158.822	143	0.900376	65.2083	77.7912	0.290091
580	158.687	142.867	0.900305	65.1465	77.7206	0.29015
581	158.554	142.735	0.900235	65.0851	77.6504	0.29021
582	158.42	142.604	0.900165	65.0239	77.5805	0.290269
583	158.288	142.474	0.900096	64.9631	77.5109	0.290328
584	158.156	142.344	0.900026	64.9025	77.4417	0.290387
585	158.024	142.215	0.899957	64.8422	77.3728	0.290446
586	157.893	142.086	0.899889	64.7823	77.3042	0.290505
587	157.763	141.959	0.899821	64.7226	77.236	0.290564
588	157.634	141.831	0.899753	64.6633	77.1681	0.290622
589	157.505	141.705	0.899685	64.6042	77.1005	0.290681
590	157.376	141.579	0.899618	64.5455	77.0333	0.290739
591	157.249	141.453	0.899552	64.487	76.9664	0.290797
592	157.122	141.329	0.899485	64.4288	76.8999	0.290855
593	156.995	141.205	0.899419	64.371	76.8336	0.290913
594	156.87	141.081	0.899353	64.3134	76.7678	0.29097
595	156.744	140.958	0.899288	64.2562	76.7022	0.291028
596	156.62	140.836	0.899223	64.1992	76.637	0.291085
597	156.496	140.715	0.899158	64.1426	76.5721	0.291142
598	156.373	140.594	0.899094	64.0862	76.5076	0.291199
599	156.25	140.474	0.89903	64.0301	76.4434	0.291255
600	156.128	140.354	0.898966	63.9744	76.3795	0.291311
601	156.007	140.235	0.898902	63.9189	76.316	0.291367
602	155.886	140.117	0.898839	63.8638	76.2529	0.291423
603	155.766	139.999	0.898777	63.8091	76.1902	0.291478
604	155.647	139.883	0.898714	63.7546	76.1279	0.291532
605	155.529	139.767	0.898652	63.7006	76.0659	0.291587
606	155.411	139.651	0.898591	63.6468	76.0044	0.29164
607	155.294	139.536	0.898529	63.5933	75.9431	0.291694
608	155.178	139.422	0.898468	63.5401	75.8821	0.291748
609	155.061	139.308	0.898407	63.4871	75.8213	0.291801
610	154.946	139.195	0.898347	63.4342	75.7608	0.291855
611	154.831	139.082	0.898286	63.3817	75.7005	0.291909
612	154.716	138.97	0.898227	63.3293	75.6405	0.291962
613	154.602	138.858	0.898167	63.2772	75.5808	0.292016
614	154.488	138.747	0.898107	63.2254	75.5213	0.292069
615	154.375	138.636	0.898048	63.1737	75.4621	0.292123
616	154.262	138.525	0.897989	63.1223	75.4031	0.292176
617	154.149	138.415	0.897931	63.0711	75.3444	0.29223
618	154.038	138.306	0.897873	63.0201	75.2859	0.292283
619	153.926	138.197	0.897815	62.9694	75.2277	0.292337
620	153.815	138.089	0.897757	62.9189	75.1698	0.29239
621	153.705	137.981	0.897699	62.8686	75.1121	0.292443
622	153.595	137.873	0.897642	62.8186	75.0546	0.292496
623	153.485	137.766	0.897585	62.7688	74.9974	0.292549
624	153.376	137.66	0.897528	62.7192	74.9405	0.292602
625	153.268	137.554	0.897472	62.6698	74.8838	0.292655
626	153.16	137.448	0.897416	62.6207	74.8274	0.292708
627	153.052	137.343	0.89736	62.5718	74.7712	0.292761
628	152.945	137.238	0.897305	62.5231	74.7153	0.292813
629	152.839	137.134	0.897249	62.4746	74.6597	0.292866
630	152.732	137.031	0.897194	62.4264	74.6043	0.292918
631	152.627	136.928	0.897139	62.3784	74.5491	0.29297
632	152.522	136.825	0.897085	62.3306	74.4942	0.293022
633	152.417	136.723	0.897031	62.2831	74.4396	0.293074
634	152.313	136.621	0.896977	62.2358	74.3852	0.293126
635	152.209	136.52	0.896923	62.1887	74.3311	0.293178
636	152.106	136.419	0.896869	62.1418	74.2772	0.293229
637	152.003	136.319	0.896816	62.0952	74.2236	0.29328
638	151.901	136.219	0.896763	62.0487	74.1702	0.293332
639	151.799	136.12	0.896711	62.0025	74.1171	0.293383
640	151.698	136.021	0.896658	61.9566	74.0643	0.293433
641	151.597	135.922	0.896606	61.9108	74.0117	0.293484
642	151.496	135.825	0.896554	61.8653	73.9593	0.293535
643	151.396	135.727	0.896502	61.82	73.9072	0.293585
644	151.297	135.63	0.896451	61.7749	73.8554	0.293635
645	151.198	135.534	0.8964	61.7301	73.8038	0.293685
646	151.1	135.438	0.896349	61.6855	73.7525	0.293734
647	151.002	135.342	0.896298	61.6411	73.7014	0.293784
648	150.904	135.247	0.896248	61.5969	73.6506	0.293833
649	150.807	135.153	0.896198	61.5529	73.6	0.293882
650	150.711	135.059	0.896148	61.5092	73.5497	0.293931
651	150.614	134.965	0.896098	61.4657	73.4996	0.293979
652	150.519	134.872	0.896048	61.4224	73.4498	0.294028
653	150.424	134.779	0.895999	61.3793	73.4001	0.294076
654	150.329	134.687	0.89595	61.3363	73.3507	0.294124
655	150.234	134.595	0.895901	61.2935	73.3014	0.294173
656	150.14	134.503	0.895853	61.2509	73.2524	0.294221
657	150.046	134.412	0.895804	61.2085	73.2035	0.29427
658	149.953	134.321	0.895756	61.1662	73.1548	0.294318
659	149.859	134.23	0.895708	61.1241	73.1063	0.294366
660	149.767	134.14	0.895661	61.0822	73.058	0.294415
661	149.674	134.05	0.895613	61.0404	73.0099	0.294463
662	149.582	133.961	0.895566	60.9988	72.962	0.294511
663	149.491	133.872	0.895519	60.9574	72.9143	0.294559
664	149.399	133.783	0.895472	60.9162	72.8667	0.294607
665	149.308	133.694	0.895425	60.8751	72.8194	0.294656
666	149.218	133.606	0.895379	60.8342	72.7723	0.294704
667	149.128	133.519	0.895333	60.7934	72.7253	0.294752
668	149.038	133.431	0.895287	60.7529	72.6785	0.2948
669	148.948	133.344	0.895241	60.7125	72.632	0.294847
670	148.859	133.258	0.895195	60.6723	72.5856	0.294895
671	148.77	133.172	0.89515	60.6322	72.5394	0.294943
672	148.682	133.086	0.895105	60.5923	72.4934	0.294991
673	148.594	133	0.89506	60.5526	72.4476	0.295038
674	148.506	132.915	0.895015	60.5131	72.402	0.295086
675	148.419	132.83	0.89497	60.4737	72.3565	0.295133
676	148.332	132.746	0.894926	60.4345	72.3113	0.29518
677	148.245	132.662	0.894882	60.3955	72.2662	0.295227
678	148.159	132.578	0.894838	60.3566	72.2214	0.295275
679	148.073	132.495	0.894794	60.3179	72.1767	0.295322
680	147.987	132.412	0.89475	60.2794	72.1323	0.295368
681	147.902	132.329	0.894707	60.241	72.088	0.295415
682	147.817	132.247	0.894664	60.2028	72.0439	0.295462
683	147.733	132.165	0.894621	60.1648	72	0.295508
684	147.649	132.083	0.894578	60.127	71.9563	0.295555
685	147.565	132.002	0.894536	60.0893	71.9128	0.295601
686	147.482	131.921	0.894493	60.0518	71.8694	0.295647
687	147.398	131.841	0.894451	60.0144	71.8263	0.295693
688	147.316	131.761	0.894409	59.9772	71.7834	0.295739
689	147.234	131.681	0.894367	59.9402	71.7406	0.295785
690	147.152	131.601	0.894326	59.9034	71.698	0.29583
691	147.07	131.522	0.894284	59.8667	71.6557	0.295876
692	146.989	131.444	0.894243	59.8302	71.6135	0.295921
693	146.908	131.365	0.894202	59.7938	71.5715	0.295966
694	146.827	131.287	0.894161	59.7577	71.5297	0.296011
695	146.747	131.21	0.89412	59.7217	71.4881	0.296056
696	146.667	131.132	0.89408	59.6858	71.4466	0.296101
697	146.588	131.056	0.89404	59.6501	71.4054	0.296145
698	146.509	130.979	0.894	59.6146	71.3643	0.29619
699	146.43	130.902	0.89396	59.5791	71.3233	0.296234
700	146.351	130.826	0.89392	59.5438	71.2824	0.296279
701	146.273	130.75	0.89388	59.5085	71.2417	0.296324
702	146.194	130.674	0.893841	59.4734	71.2011	0.296369
703	146.116	130.599	0.893802	59.4384	71.1606	0.296414
704	146.039	130.524	0.893763	59.4036	71.1203	0.296458
705	145.961	130.449	0.893724	59.3689	71.0801	0.296503
706	145.884	130.374	0.893685	59.3343	71.0401	0.296548
707	145.807	130.3	0.893646	59.2998	71.0002	0.296593
708	145.731	130.226	0.893608	59.2655	70.9605	0.296638
709	145.654	130.152	0.89357	59.2313	70.9209	0.296683
710	145.578	130.079	0.893532	59.1972	70.8814	0.296727
711	145.502	130.005	0.893494	59.1633	70.8421	0.296772
712	145.427	129.932	0.893456	59.1294	70.8029	0.296817
713	145.351	129.86	0.893418	59.0957	70.7639	0.296861
714	145.276	129.787	0.893381	59.0622	70.725	0.296906
715	145.202	129.715	0.893344	59.0287	70.6863	0.296951
716	145.127	129.643	0.893307	58.9954	70.6477	0.296995
717	145.053	129.572	0.89327	58.9623	70.6093	0.29704
718	144.979	129.5	0.893233	58.9292	70.571	0.297084
719	144.906	129.429	0.893196	58.8963	70.5328	0.297128
720	144.832	129.358	0.89316	58.8635	70.4948	0.297173
721	144.759	129.288	0.893124	58.8308	70.457	0.297217
722	144.686	129.218	0.893088	58.7983	70.4192	0.297261
723	144.614	129.148	0.893052	58.7659	70.3817	0.297305
724	144.541	129.078	0.893016	58.7336	70.3442	0.29735
725	144.469	129.008	0.89298	58.7014	70.3069	0.297394
726	144.398	128.939	0.892945	58.6694	70.2698	0.297437
727	144.326	128.87	0.892909	58.6375	70.2328	0.297481
728	144.255	128.802	0.892874	58.6057	70.1959	0.297525
729	144.184	128.733	0.892839	58.574	70.1592	0.297569
730	144.113	128.665	0.892804	58.5425	70.1226	0.297613
731	144.043	128.597	0.89277	58.5111	70.0862	0.297656
732	143.973	128.53	0.892735	58.4798	70.0499	0.2977
733	143.903	128.462	0.892701	58.4487	70.0138	0.297743
734	143.834	128.395	0.892666	58.4177	69.9778	0.297786
735	143.764	128.329	0.892632	58.3868	69.9419	0.29783
736	143.695	128.262	0.892598	58.356	69.9062	0.297873
737	143.627	128.196	0.892565	58.3254	69.8706	0.297916
738	143.558	128.13	0.892531	58.2949	69.8352	0.297959
739	143.49	128.064	0.892498	58.2645	69.7999	0.298001
740	143.422	127.999	0.892464	58.2342	69.7648	0.298044
741	143.354	127.934	0.892431	58.2041	69.7298	0.298087
742	143.287	127.869	0.892398	58.1741	69.695	0.298129
743	143.22	127.804	0.892365	58.1442	69.6603	0.298171
744	143.153	127.74	0.892332	58.1144	69.6257	0.298214
745	143.086	127.676	0.8923	58.0847	69.5912	0.298256
746	143.02	127.612	0.892267	58.0551	69.5568	0.298299
747	142.953	127.548	0.892235	58.0255	69.5224	0.298341
748	142.887	127.484	0.892203	57.9961	69.4882	0.298384
749	142.821	127.421	0.892171	57.9667	69.454	0.298427
750	142.755	127.357	0.892139	57.9374	69.4199	0.29847
751	142.689	127.294	0.892107	57.9081	69.3859	0.298513
752	142.624	127.231	0.892075	57.879	69.3521	0.298556
753	142.558	127.168	0.892044	57.85	69.3183	0.298599
754	142.493	127.106	0.892012	57.8211	69.2847	0.298642
755	142.428	127.044	0.891981	57.7923	69.2512	0.298685
756	142.364	126.981	0.89195	57.7636	69.2178	0.298728
757	142.299	126.92	0.891919	57.735	69.1846	0.298771
758	142.235	126.858	0.891888	57.7066	69.1514	0.298814
759	142.171	126.797	0.891858	57.6782	69.1184	0.298856
760	142.108	126.735	0.891827	57.6499	69.0855	0.298899
761	142.044	126.674	0.891796	57.6218	69.0527	0.298942
762	141.981	126.614	0.891766	57.5937	69.0201	0.298984
763	141.918	126.553	0.891736	57.5657	68.9875	0.299027
764	141.855	126.493	0.891706	57.5379	68.9551	0.299069
765	141.792	126.433	0.891676	57.5102	68.9228	0.299112
766	141.73	126.373	0.891646	57.4825	68.8906	0.299154
767	141.668	126.314	0.891616	57.455	68.8585	0.299196
768	141.606	126.254	0.891587	57.4276	68.8266	0.299238
769	141.544	126.195	0.891558	57.4003	68.7948	0.29928
770	141.483	126.136	0.891528	57.373	68.7631	0.299322
771	141.422	126.077	0.891499	57.3459	68.7315	0.299364
772	141.361	126.019	0.89147	57.3189	68.7	0.299406
773	141.3	125.961	0.891441	57.292	68.6687	0.299448
774	141.24	125.903	0.891412	57.2652	68.6375	0.29949
775	141.179	125.845	0.891384	57.2386	68.6064	0.299531
776	141.119	125.787	0.891355	57.212	68.5754	0.299573
777	141.059	125.73	0.891327	57.1855	68.5445	0.299614
778	141	125.673	0.891298	57.1591	68.5138	0.299656
779	140.94	125.616	0.89127	57.1328	68.4832	0.299697
780	140.881	125.559	0.891242	57.1067	68.4527	0.299738
781	140.822	125.503	0.891214	57.0806	68.4223	0.299779
782	140.764	125.447	0.891187	57.0547	68.392	0.29982
783	140.705	125.391	0.891159	57.0288	68.3619	0.299861
784	140.647	125.335	0.891131	57.0031	68.3318	0.299901
785	140.589	125.279	0.891104	56.9774	68.3019	0.299942
786	140.531	125.224	0.891077	56.9519	68.2722	0.299982
787	140.474	125.169	0.891049	56.9265	68.2425	0.300023
788	140.416	125.114	0.891022	56.9011	68.2129	0.300063
789	140.359	125.059	0.890995	56.8759	68.1835	0.300103
790	140.302	125.005	0.890968	56.8508	68.1542	0.300143
791	140.246	124.951	0.890942	56.8257	68.125	0.300183
792	140.189	124.897	0.890915	56.8008	68.0959	0.300223
793	140.133	124.843	0.890889	56.7759	68.0668	0.300263
794	140.077	124.789	0.890862	56.7511	68.0379	0.300303
795	140.02	124.735	0.890836	56.7263	68.009	0.300344
796	139.965	124.682	0.89081	56.7016	67.9801	0.300384
797	139.909	124.628	0.890784	56.677	67.9514	0.300424
798	139.853	124.575	0.890758	56.6524	67.9227	0.300465
799	139.797	124.522	0.890732	56.628	67.8941	0.300505
800	139.742	124.469	0.890706	56.6035	67.8656	0.300546
801	139.687	124.416	0.890681	56.5792	67.8371	0.300586
802	139.632	124.364	0.890655	56.5549	67.8088	0.300627
803	139.577	124.311	0.89063	56.5308	67.7805	0.300667
804	139.522	124.259	0.890604	56.5067	67.7523	0.300708
805	139.468	124.207	0.890579	56.4827	67.7243	0.300748
806	139.413	124.155	0.890554	56.4587	67.6963	0.300788
807	139.359	124.103	0.890529	56.4349	67.6684	0.300829
808	139.305	124.052	0.890504	56.4111	67.6407	0.300869
809	139.251	124	0.89048	56.3875	67.613	0.300909
810	139.198	123.949	0.890455	56.3639	67.5854	0.300949
811	139.144	123.898	0.89043	56.3404	67.5579	0.300989
812	139.091	123.848	0.890406	56.317	67.5305	0.301029
813	139.038	123.797	0.890382	56.2936	67.5032	0.301069
814	138.985	123.746	0.890357	56.2704	67.476	0.301109
815	138.932	123.696	0.890333	56.2472	67.4489	0.301149
816	138.88	123.646	0.890309	56.2242	67.4219	0.301189
817	138.828	123.596	0.890285	56.2012	67.395	0.301229
818	138.775	123.546	0.890261	56.1783	67.3682	0.301268
819	138.724	123.497	0.890238	56.1554	67.3415	0.301308
820	138.672	123.448	0.890214	56.1327	67.3149	0.301347
821	138.62	123.398	0.890191	56.11	67.2884	0.301387
822	138.569	123.349	0.890167	56.0875	67.262	0.301426
823	138.518	123.301	0.890144	56.065	67.2356	0.301466
824	138.467	123.252	0.890121	56.0426	67.2094	0.301505
825	138.416	123.203	0.890098	56.0202	67.1833	0.301544
826	138.365	123.155	0.890075	55.998	67.1572	0.301583
827	138.315	123.107	0.890052	55.9758	67.1313	0.301622
828	138.264	123.059	0.890029	55.9538	67.1054	0.301661
829	138.214	123.011	0.890006	55.9318	67.0797	0.3017
830	138.164	122.964	0.889984	55.9099	67.054	0.301738
831	138.114	122.917	0.889961	55.8881	67.0284	0.301777
832	138.065	122.869	0.889939	55.8663	67.003	0.301816
833	138.016	122.822	0.889916	55.8447	66.9776	0.301854
834	137.966	122.775	0.889894	55.8231	66.9523	0.301892
835	137.917	122.729	0.889872	55.8016	66.9272	0.301931
836	137.869	122.682	0.88985	55.7802	66.9021	0.301969
837	137.82	122.636	0.889828	55.7589	66.8771	0.302007
838	137.771	122.59	0.889806	55.7377	66.8522	0.302045
839	137.723	122.544	0.889784	55.7165	66.8274	0.302083
840	137.675	122.498	0.889763	55.6954	66.8026	0.302121
841	137.627	122.452	0.889741	55.6743	66.778	0.302159
842	137.579	122.407	0.88972	55.6533	66.7533	0.302197
843	137.531	122.361	0.889698	55.6324	66.7288	0.302235
844	137.483	122.316	0.889677	55.6115	66.7043	0.302273
845	137.436	122.271	0.889656	55.5907	66.6799	0.302311
846	137.388	122.225	0.889635	55.5699	66.6555	0.302349
847	137.341	122.18	0.889614	55.5492	66.6312	0.302388
848	137.294	122.136	0.889593	55.5286	66.607	0.302426
849	137.247	122.091	0.889572	55.508	66.5828	0.302464
850	137.2	122.046	0.889551	55.4875	66.5588	0.302502
851	137.153	122.002	0.88953	55.467	66.5347	0.302541
852	137.106	121.957	0.88951	55.4466	66.5108	0.302579
853	137.06	121.913	0.889489	55.4263	66.487	0.302617
854	137.014	121.869	0.889469	55.4061	66.4632	0.302655
855	136.967	121.825	0.889449	55.3859	66.4395	0.302693
856	136.921	121.782	0.889429	55.3659	66.416	0.302731
857	136.876	121.738	0.889408	55.3458	66.3925	0.302768
858	136.83	121.695	0.889388	55.3259	66.3691	0.302806
859	136.785	121.652	0.889368	55.3061	66.3458	0.302843
860	136.739	121.609	0.889348	55.2863	66.3225	0.302881
861	136.694	121.566	0.889329	55.2666	66.2994	0.302918
862	136.649	121.523	0.889309	55.247	66.2763	0.302956
863	136.604	121.481	0.889289	55.2274	66.2534	0.302993
864	136.56	121.438	0.88927	55.208	66.2305	0.30303
865	136.515	121.396	0.88925	55.1886	66.2077	0.303067
866	136.471	121.354	0.889231	55.1693	66.185	0.303104
867	136.427	121.312	0.889212	55.15	66.1624	0.30314
868	136.383	121.271	0.889192	55.1308	66.1399	0.303177
869	136.339	121.229	0.889173	55.1118	66.1174	0.303213
870	136.296	121.188	0.889154	55.0927	66.0951	0.30325
871	136.252	121.147	0.889135	55.0738	66.0728	0.303286
872	136.209	121.106	0.889116	55.0549	66.0507	0.303322
873	136.166	121.065	0.889098	55.0362	66.0286	0.303359
874	136.123	121.024	0.889079	55.0174	66.0066	0.303395
875	136.08	120.983	0.88906	54.9988	65.9847	0.30343
876	136.038	120.943	0.889042	54.9802	65.9629	0.303466
877	135.995	120.903	0.889023	54.9618	65.9411	0.303502
878	135.953	120.863	0.889005	54.9433	65.9195	0.303537
879	135.911	120.823	0.888987	54.925	65.8979	0.303573
880	135.869	120.783	0.888968	54.9068	65.8765	0.303608
881	135.827	120.744	0.88895	54.8886	65.8551	0.303643
882	135.786	120.704	0.888932	54.8705	65.8338	0.303678
883	135.744	120.665	0.888914	54.8524	65.8126	0.303713
884	135.703	120.626	0.888896	54.8345	65.7915	0.303748
885	135.662	120.587	0.888878	54.8166	65.7704	0.303783
886	135.621	120.548	0.888861	54.7988	65.7495	0.303817
887	135.58	120.51	0.888843	54.781	65.7286	0.303852
888	135.54	120.471	0.888825	54.7633	65.7078	0.303887
889	135.499	120.433	0.888808	54.7456	65.687	0.303921
890	135.459	120.394	0.88879	54.728	65.6662	0.303956
891	135.418	120.356	0.888773	54.7104	65.6456	0.303991
892	135.378	120.318	0.888756	54.6929	65.6249	0.304025
893	135.338	120.28	0.888738	54.6754	65.6043	0.30406
894	135.297	120.242	0.888721	54.6579	65.5838	0.304095
895	135.257	120.204	0.888704	54.6405	65.5633	0.30413
896	135.217	120.166	0.888687	54.6232	65.5428	0.304165
897	135.178	120.128	0.88867	54.6059	65.5225	0.3042
898	135.138	120.091	0.888653	54.5886	65.5021	0.304235
899	135.098	120.053	0.888636	54.5714	65.4818	0.30427
900	135.059	120.016	0.88862	54.5542	65.4616	0.304305
901	135.019	119.978	0.888603	54.5371	65.4414	0.30434
902	134.98	119.941	0.888586	54.52	65.4213	0.304375
903	134.941	119.904	0.88857	54.503	65.4012	0.30441
904	134.902	119.867	0.888554	54.4861	65.3813	0.304445
905	134.863	119.831	0.888537	54.4692	65.3614	0.304479
906	134.824	119.794	0.888521	54.4524	65.3415	0.304514
907	134.785	119.757	0.888505	54.4356	65.3218	0.304549
908	134.747	119.721	0.888488	54.4189	65.3021	0.304583
909	134.709	119.685	0.888472	54.4023	65.2825	0.304618
910	134.67	119.649	0.888456	54.3857	65.263	0.304652
911	134.632	119.613	0.88844	54.3692	65.2435	0.304686
912	134.594	119.577	0.888424	54.3528	65.2241	0.30472
913	134.557	119.541	0.888409	54.3364	65.2048	0.304754
914	134.519	119.506	0.888393	54.3201	65.1856	0.304788
915	134.481	119.47	0.888377	54.3038	65.1664	0.304822
916	134.444	119.435	0.888362	54.2876	65.1473	0.304856
917	134.407	119.4	0.888346	54.2715	65.1282	0.30489
918	134.37	119.365	0.888331	54.2554	65.1093	0.304924
919	134.333	119.33	0.888315	54.2394	65.0904	0.304957
920	134.296	119.295	0.8883	54.2234	65.0716	0.304991
921	134.259	119.26	0.888284	54.2076	65.0528	0.305024
922	134.223	119.226	0.888269	54.1917	65.0342	0.305057
923	134.186	119.192	0.888254	54.176	65.0156	0.30509
924	134.15	119.157	0.888239	54.1603	64.9971	0.305124
925	134.114	119.123	0.888224	54.1446	64.9786	0.305157
926	134.078	119.089	0.888209	54.129	64.9602	0.305189
927	134.042	119.055	0.888194	54.1135	64.9419	0.305222
928	134.006	119.022	0.888179	54.0981	64.9237	0.305255
929	133.971	118.988	0.888164	54.0827	64.9055	0.305287
930	133.935	118.955	0.88815	54.0673	64.8874	0.30532
931	133.9	118.921	0.888135	54.0521	64.8694	0.305352
932	133.865	118.888	0.888121	54.0369	64.8514	0.305385
933	133.83	118.855	0.888106	54.0217	64.8336	0.305417
934	133.795	118.822	0.888092	54.0066	64.8158	0.305449
935	133.76	118.79	0.888077	53.9916	64.798	0.305481
936	133.726	118.757	0.888063	53.9766	64.7803	0.305513
937	133.691	118.724	0.888049	53.9616	64.7626	0.305545
938	133.657	118.692	0.888034	53.9467	64.745	0.305577
939	133.622	118.659	0.88802	53.9319	64.7275	0.305609
940	133.588	118.627	0.888006	53.917	64.71	0.305641
941	133.554	118.595	0.887992	53.9023	64.6925	0.305673
942	133.52	118.563	0.887978	53.8875	64.6751	0.305705
943	133.486	118.531	0.887964	53.8728	64.6578	0.305737
944	133.452	118.499	0.88795	53.8582	64.6404	0.305769
945	133.418	118.467	0.887937	53.8436	64.6232	0.305801
946	133.384	118.435	0.887923	53.829	64.606	0.305833
947	133.351	118.403	0.887909	53.8145	64.5888	0.305865
948	133.317	118.372	0.887896	53.8	64.5717	0.305897
949	133.284	118.34	0.887882	53.7856	64.5546	0.305929
950	133.25	118.309	0.887869	53.7712	64.5376	0.305961
951	133.217	118.277	0.887855	53.7568	64.5206	0.305992
952	133.184	118.246	0.887842	53.7425	64.5037	0.306024
953	133.151	118.215	0.887829	53.7283	64.4869	0.306056
954	133.118	118.184	0.887815	53.7141	64.4701	0.306088
955	133.085	118.153	0.887802	53.6999	64.4533	0.306119
956	133.052	118.122	0.887789	53.6858	64.4367	0.306151
957	133.02	118.092	0.887776	53.6718	64.42	0.306183
958	132.987	118.061	0.887763	53.6578	64.4035	0.306214
959	132.955	118.031	0.88775	53.6438	64.3869	0.306246
960	132.923	118	0.887737	53.6299	64.3705	0.306277
961	132.891	117.97	0.887724	53.616	64.3541	0.306308
962	132.858	117.94	0.887711	53.6022	64.3377	0.30634
963	132.827	117.91	0.887699	53.5885	64.3215	0.306371
964	132.795	117.88	0.887686	53.5747	64.3052	0.306402
965	132.763	117.85	0.887673	53.5611	64.289	0.306433
966	132.731	117.82	0.887661	53.5475	64.2729	0.306464
967	132.7	117.791	0.887648	53.5339	64.2569	0.306495
968	132.668	117.761	0.887636	53.5204	64.2409	0.306526
969	132.637	117.732	0.887623	53.5069	64.2249	0.306557
970	132.606	117.702	0.887611	53.4935	64.209	0.306588
971	132.575	117.673	0.887599	53.4801	64.1932	0.306618
972	132.544	117.644	0.887586	53.4668	64.1774	0.306649
973	132.513	117.615	0.887574	53.4535	64.1617	0.30668
974	132.482	117.586	0.887562	53.4403	64.146	0.30671
975	132.452	117.557	0.88755	53.4271	64.1304	0.306741
976	132.421	117.529	0.887538	53.4139	64.1148	0.306771
977	132.391	117.5	0.887526	53.4008	64.0993	0.306801
978	132.36	117.472	0.887514	53.3878	64.0839	0.306831
979	132.33	117.443	0.887502	53.3748	64.0685	0.306862
980	132.3	117.415	0.88749	53.3619	64.0532	0.306892
981	132.27	117.387	0.887479	53.349	64.0379	0.306922
982	132.24	117.359	0.887467	53.3361	64.0227	0.306952
983	132.21	117.331	0.887455	53.3233	64.0075	0.306981
984	132.181	117.303	0.887444	53.3106	63.9924	0.307011
985	132.151	117.275	0.887432	53.2978	63.9773	0.307041
986	132.121	117.247	0.887421	53.2851	63.9622	0.307071
987	132.092	117.22	0.887409	53.2724	63.9472	0.307101
988	132.062	117.192	0.887398	53.2598	63.9322	0.307131
989	132.033	117.164	0.887386	53.2471	63.9172	0.307161
990	132.004	117.137	0.887375	53.2346	63.9022	0.307192
991	131.974	117.109	0.887364	53.222	63.8873	0.307222
992	131.945	117.082	0.887353	53.2095	63.8725	0.307252
993	131.916	117.055	0.887341	53.197	63.8576	0.307282
994	131.887	117.027	0.88733	53.1845	63.8428	0.307312
995	131.858	117	0.887319	53.172	63.8281	0.307342
996	131.829	116.973	0.887308	53.1596	63.8133	0.307373
997	131.8	116.946	0.887297	53.1472	63.7986	0.307403
998	131.771	116.919	0.887287	53.1349	63.7839	0.307433
999	131.742	116.892	0.887276	53.1225	63.7693	0.307464
1000	131.714	116.865	0.887265	53.1103	63.7547	0.307494
